{
  "timestamp": "2026-01-12T17:51:40.733822",
  "version": "3.0",
  "count": 26,
  "responses": {
    "disease_baseline_nsclc": {
      "tools_called": [
        "get_demographics_baseline_specs",
        "get_baseline_covariates",
        "get_baseline_covariates",
        "get_population_definitions",
        "get_statistical_method"
      ],
      "content": "I'll help you generate the Baseline Characteristics section for your NSCLC SAP. Let me first retrieve the relevant specifications from the knowledge base.\n[TOOL:get_demographics_baseline_specs]\nError: attempted relative import with no known parent package\nLet me try getting the baseline covariates specific to NSCLC:\n[TOOL:get_baseline_covariates]\nError: attempted relative import with no known parent package\nLet me try the lung cancer specifications:\n[TOOL:get_baseline_covariates]\nError: attempted relative import with no known parent package\nLet me try getting the population definitions and statistical methods that are commonly used for baseline characteristics:\n[TOOL:get_population_definitions]\n{'itt': {'name': 'Intent-to-Treat (ITT) Population', 'definition': 'All randomized subjects, analyzed according to randomized treatment assignment regardless of actual treatment received.', 'use_for': ['Primary efficacy analysis', 'Regulatory submission'], 'source': 'ICH E9'}, 'mitt': {'name': 'Modified Intent-to-Treat (mITT) Population', 'definition': 'All randomized subjects who received at least one dose of study treatment and had at least one post-baseline efficacy assessment.', 'use_for': ['Supportive efficacy analysis'], 'exclusions': ['No study drug received', 'No post-baseline assessment']}, 'safety': {'name': 'Safety Population', 'definition': 'All subjects who received at least one dose (or partial dose) of study treatment, analyzed according to treatment actually received.', 'use_for': ['All safety analyses', 'AE summaries', 'Laboratory analyses']}, 'per_protocol': {'name': 'Per-Protocol (PP) Population', 'definition': 'All subjects in the ITT population who completed the study without major protocol deviations that could affect efficacy assessment.', 'use_for': ['Supportive/sensitivity efficacy analysis'], 'exclusions': ['Major protocol deviations', 'Inadequate treatment exposure', 'Wrong diagnosis']}, 'evaluable': {'name': 'Evaluable Population', 'definition': 'All subjects who received study treatment and had adequate baseline and post-baseline tumor assessments for response evaluation.', 'use_for': ['Response rate analyses (ORR, CR, PR)']}, 'pharmacokinetic': {'name': 'Pharmacokinetic (PK) Population', 'definition': 'All subjects who received study treatment and had at least one evaluable PK sample.', 'use_for': ['PK analyses', 'Exposure-response analyses']}, 'dlt_evaluable': {'name': 'DLT-Evaluable Population', 'definition': 'All subjects who received the full planned dose during the DLT evaluation period or experienced a DLT.', 'use_for': ['Phase 1 dose-escalation', 'MTD determination']}}\n\n[TOOL:get_statistical_method]\n{}\n",
      "cached_at": "2026-01-12T17:45:45.951885"
    },
    "disease_baseline_sclc": {
      "tools_called": [
        "get_demographics_baseline_specs",
        "get_baseline_covariates",
        "get_population_definitions",
        "get_stratification_specs",
        "get_performance_status_scales"
      ],
      "content": "I'll help you generate the Baseline Characteristics section for your SCLC (Small Cell Lung Cancer) SAP. Let me first call the relevant knowledge base tools to get the appropriate specifications.\n[TOOL:get_demographics_baseline_specs]\nError: attempted relative import with no known parent package\n\n[TOOL:get_baseline_covariates]\nError: attempted relative import with no known parent package\n\n[TOOL:get_population_definitions]\n{'itt': {'name': 'Intent-to-Treat (ITT) Population', 'definition': 'All randomized subjects, analyzed according to randomized treatment assignment regardless of actual treatment received.', 'use_for': ['Primary efficacy analysis', 'Regulatory submission'], 'source': 'ICH E9'}, 'mitt': {'name': 'Modified Intent-to-Treat (mITT) Population', 'definition': 'All randomized subjects who received at least one dose of study treatment and had at least one post-baseline efficacy assessment.', 'use_for': ['Supportive efficacy analysis'], 'exclusions': ['No study drug received', 'No post-baseline assessment']}, 'safety': {'name': 'Safety Population', 'definition': 'All subjects who received at least one dose (or partial dose) of study treatment, analyzed according to treatment actually received.', 'use_for': ['All safety analyses', 'AE summaries', 'Laboratory analyses']}, 'per_protocol': {'name': 'Per-Protocol (PP) Population', 'definition': 'All subjects in the ITT population who completed the study without major protocol deviations that could affect efficacy assessment.', 'use_for': ['Supportive/sensitivity efficacy analysis'], 'exclusions': ['Major protocol deviations', 'Inadequate treatment exposure', 'Wrong diagnosis']}, 'evaluable': {'name': 'Evaluable Population', 'definition': 'All subjects who received study treatment and had adequate baseline and post-baseline tumor assessments for response evaluation.', 'use_for': ['Response rate analyses (ORR, CR, PR)']}, 'pharmacokinetic': {'name': 'Pharmacokinetic (PK) Population', 'definition': 'All subjects who received study treatment and had at least one evaluable PK sample.', 'use_for': ['PK analyses', 'Exposure-response analyses']}, 'dlt_evaluable': {'name': 'DLT-Evaluable Population', 'definition': 'All subjects who received the full planned dose during the DLT evaluation period or experienced a DLT.', 'use_for': ['Phase 1 dose-escalation', 'MTD determination']}}\n\n[TOOL:get_stratification_specs]\n{'common_stratification_factors': {'geographic_region': {'name': 'Geographic Region', 'common_categorizations': [{'type': '3-level', 'categories': ['North America', 'Europe', 'Rest of World'], 'pooling_rules': 'Pool regions with <10% enrollment'}, {'type': '4-level', 'categories': ['North America', 'Western Europe', 'Eastern Europe', 'Asia-Pacific'], 'pooling_rules': 'Asia-Pacific may be pooled with ROW if <15%'}, {'type': '2-level', 'categories': ['Asia', 'Non-Asia'], 'use_case': 'Global studies with significant Asian enrollment'}], 'adam_variable': 'STRATF1 or REGION', 'source': 'IXRS/IVRS randomization data'}, 'ecog_performance_status': {'name': 'ECOG Performance Status', 'common_categorizations': [{'type': '2-level', 'categories': ['0', '1'], 'note': 'Most common for Phase 3'}, {'type': '3-level', 'categories': ['0', '1', '2'], 'use_case': 'When ECOG 2 eligible'}, {'type': '2-level-pooled', 'categories': ['0', '>=1'], 'pooling_rules': 'Pool 1 and 2 if ECOG 2 rare'}], 'adam_variable': 'ECOGBL or STRATF2', 'source': 'Baseline ECOG from EDC'}, 'prior_therapy_lines': {'name': 'Number of Prior Lines of Systemic Therapy', 'common_categorizations': [{'type': '2-level', 'categories': ['0-1', '>=2'], 'use_case': 'Second-line and beyond'}, {'type': '2-level', 'categories': ['1', '>=2'], 'use_case': 'When all patients had prior therapy'}, {'type': '3-level', 'categories': ['0', '1', '>=2'], 'use_case': 'Includes treatment-naive'}], 'adam_variable': 'NPRIOR or STRATF3', 'derivation': 'Count of prior systemic anticancer regimens'}, 'disease_stage': {'name': 'Disease Stage at Study Entry', 'common_categorizations': [{'type': '2-level-nsclc', 'categories': ['Stage IIIB', 'Stage IV'], 'tumor_type': 'NSCLC'}, {'type': '2-level-solid', 'categories': ['Locally Advanced', 'Metastatic'], 'tumor_type': 'Solid tumors'}, {'type': '3-level-crc', 'categories': ['Liver metastases only', 'Lung metastases only', 'Other'], 'tumor_type': 'Colorectal cancer'}], 'adam_variable': 'DISEASEST or S\n\n[TOOL:get_performance_status_scales]\n{'ECOG': {'name': 'ECOG Performance Status', 'categories': ['0', '1', '2', '3', '4', '5'], 'definitions': {'0': 'Fully active, no restrictions', '1': 'Restricted in strenuous activity, ambulatory', '2': 'Ambulatory, capable of self-care, up >50% of waking hours', '3': 'Capable of limited self-care, confined to bed/chair >50%', '4': 'Completely disabled, no self-care', '5': 'Dead'}}, 'Karnofsky': {'name': 'Karnofsky Performance Status', 'categories': ['100', '90', '80', '70', '60', '50', '40', '30', '20', '10', '0'], 'conversion_to_ecog': {'100': '0', '90': '0', '80': '1', '70': '1', '60': '2', '50': '2', '40': '3', '30': '3', '20': '4', '10': '4', '0': '5'}}, 'Lansky': {'name': 'Lansky Play-Performance Scale (pediatric)', 'categories': ['100', '90', '80', '70', '60', '50', '40', '30', '20', '10', '0']}, 'ASA': {'name': 'ASA Physical Status Classification', 'categories': ['I', 'II', 'III', 'IV', 'V', 'VI'], 'definitions': {'I': 'Normal healthy patient', 'II': 'Mild systemic disease', 'III': 'Severe systemic disease', 'IV': 'Severe systemic disease, constant threat to life', 'V': 'Moribund, not expected to survive without operation', 'VI': 'Brain-dead organ donor'}}}\n",
      "cached_at": "2026-01-12T17:46:00.343512"
    },
    "disease_baseline_breast": {
      "tools_called": [
        "get_demographics_baseline_specs",
        "get_baseline_covariates",
        "get_population_definitions",
        "get_stratification_specs",
        "get_adam_dataset_spec"
      ],
      "content": "I'll help you generate the Baseline Characteristics section (Section 5A) for a breast cancer SAP. Let me first retrieve the relevant specifications from the knowledge base.\n[TOOL:get_demographics_baseline_specs]\nError: attempted relative import with no known parent package\n\n[TOOL:get_baseline_covariates]\nError: attempted relative import with no known parent package\nLet me try a different approach to get the baseline characteristics specifications:\n[TOOL:get_population_definitions]\n{'itt': {'name': 'Intent-to-Treat (ITT) Population', 'definition': 'All randomized subjects, analyzed according to randomized treatment assignment regardless of actual treatment received.', 'use_for': ['Primary efficacy analysis', 'Regulatory submission'], 'source': 'ICH E9'}, 'mitt': {'name': 'Modified Intent-to-Treat (mITT) Population', 'definition': 'All randomized subjects who received at least one dose of study treatment and had at least one post-baseline efficacy assessment.', 'use_for': ['Supportive efficacy analysis'], 'exclusions': ['No study drug received', 'No post-baseline assessment']}, 'safety': {'name': 'Safety Population', 'definition': 'All subjects who received at least one dose (or partial dose) of study treatment, analyzed according to treatment actually received.', 'use_for': ['All safety analyses', 'AE summaries', 'Laboratory analyses']}, 'per_protocol': {'name': 'Per-Protocol (PP) Population', 'definition': 'All subjects in the ITT population who completed the study without major protocol deviations that could affect efficacy assessment.', 'use_for': ['Supportive/sensitivity efficacy analysis'], 'exclusions': ['Major protocol deviations', 'Inadequate treatment exposure', 'Wrong diagnosis']}, 'evaluable': {'name': 'Evaluable Population', 'definition': 'All subjects who received study treatment and had adequate baseline and post-baseline tumor assessments for response evaluation.', 'use_for': ['Response rate analyses (ORR, CR, PR)']}, 'pharmacokinetic': {'name': 'Pharmacokinetic (PK) Population', 'definition': 'All subjects who received study treatment and had at least one evaluable PK sample.', 'use_for': ['PK analyses', 'Exposure-response analyses']}, 'dlt_evaluable': {'name': 'DLT-Evaluable Population', 'definition': 'All subjects who received the full planned dose during the DLT evaluation period or experienced a DLT.', 'use_for': ['Phase 1 dose-escalation', 'MTD determination']}}\n\n[TOOL:get_stratification_specs]\n{'common_stratification_factors': {'geographic_region': {'name': 'Geographic Region', 'common_categorizations': [{'type': '3-level', 'categories': ['North America', 'Europe', 'Rest of World'], 'pooling_rules': 'Pool regions with <10% enrollment'}, {'type': '4-level', 'categories': ['North America', 'Western Europe', 'Eastern Europe', 'Asia-Pacific'], 'pooling_rules': 'Asia-Pacific may be pooled with ROW if <15%'}, {'type': '2-level', 'categories': ['Asia', 'Non-Asia'], 'use_case': 'Global studies with significant Asian enrollment'}], 'adam_variable': 'STRATF1 or REGION', 'source': 'IXRS/IVRS randomization data'}, 'ecog_performance_status': {'name': 'ECOG Performance Status', 'common_categorizations': [{'type': '2-level', 'categories': ['0', '1'], 'note': 'Most common for Phase 3'}, {'type': '3-level', 'categories': ['0', '1', '2'], 'use_case': 'When ECOG 2 eligible'}, {'type': '2-level-pooled', 'categories': ['0', '>=1'], 'pooling_rules': 'Pool 1 and 2 if ECOG 2 rare'}], 'adam_variable': 'ECOGBL or STRATF2', 'source': 'Baseline ECOG from EDC'}, 'prior_therapy_lines': {'name': 'Number of Prior Lines of Systemic Therapy', 'common_categorizations': [{'type': '2-level', 'categories': ['0-1', '>=2'], 'use_case': 'Second-line and beyond'}, {'type': '2-level', 'categories': ['1', '>=2'], 'use_case': 'When all patients had prior therapy'}, {'type': '3-level', 'categories': ['0', '1', '>=2'], 'use_case': 'Includes treatment-naive'}], 'adam_variable': 'NPRIOR or STRATF3', 'derivation': 'Count of prior systemic anticancer regimens'}, 'disease_stage': {'name': 'Disease Stage at Study Entry', 'common_categorizations': [{'type': '2-level-nsclc', 'categories': ['Stage IIIB', 'Stage IV'], 'tumor_type': 'NSCLC'}, {'type': '2-level-solid', 'categories': ['Locally Advanced', 'Metastatic'], 'tumor_type': 'Solid tumors'}, {'type': '3-level-crc', 'categories': ['Liver metastases only', 'Lung metastases only', 'Other'], 'tumor_type': 'Colorectal cancer'}], 'adam_variable': 'DISEASEST or S\n\n[TOOL:get_adam_dataset_spec]\n{'name': 'Subject-Level Analysis Dataset', 'description': 'One record per subject with demographics, baseline, and disposition', 'key_variables': {'identifiers': {'STUDYID': {'label': 'Study Identifier', 'type': 'Char'}, 'USUBJID': {'label': 'Unique Subject Identifier', 'type': 'Char'}, 'SUBJID': {'label': 'Subject Identifier for the Study', 'type': 'Char'}, 'SITEID': {'label': 'Study Site Identifier', 'type': 'Char'}}, 'treatment': {'TRT01P': {'label': 'Planned Treatment for Period 01', 'type': 'Char'}, 'TRT01PN': {'label': 'Planned Treatment for Period 01 (N)', 'type': 'Num'}, 'TRT01A': {'label': 'Actual Treatment for Period 01', 'type': 'Char'}, 'TRT01AN': {'label': 'Actual Treatment for Period 01 (N)', 'type': 'Num'}, 'TRTSDT': {'label': 'Date of First Exposure to Treatment', 'type': 'Num', 'format': 'DATE9.'}, 'TRTEDT': {'label': 'Date of Last Exposure to Treatment', 'type': 'Num', 'format': 'DATE9.'}, 'TRTDUR': {'label': 'Treatment Duration (days)', 'type': 'Num'}}, 'demographics': {'AGE': {'label': 'Age (years)', 'type': 'Num', 'derivation': '(RFSTDTC - BRTHDTC) / 365.25'}, 'AGEGR1': {'label': 'Pooled Age Group 1', 'type': 'Char', 'categories': ['<65', '>=65']}, 'AGEGR1N': {'label': 'Pooled Age Group 1 (N)', 'type': 'Num'}, 'SEX': {'label': 'Sex', 'type': 'Char'}, 'RACE': {'label': 'Race', 'type': 'Char'}, 'ETHNIC': {'label': 'Ethnicity', 'type': 'Char'}, 'COUNTRY': {'label': 'Country', 'type': 'Char'}}, 'baseline': {'HEIGHTBL': {'label': 'Baseline Height (cm)', 'type': 'Num'}, 'WEIGHTBL': {'label': 'Baseline Weight (kg)', 'type': 'Num'}, 'BMIBL': {'label': 'Baseline BMI (kg/m^2)', 'type': 'Num', 'derivation': 'WEIGHTBL / (HEIGHTBL/100)^2'}, 'ECOGBL': {'label': 'Baseline ECOG PS', 'type': 'Num'}, 'ECOGBLC': {'label': 'Baseline ECOG PS Category', 'type': 'Char'}}, 'population_flags': {'ITTFL': {'label': 'Intent-to-Treat Population Flag', 'type': 'Char', 'values': ['Y', 'N']}, 'SAFFL': {'label': 'Safety Population Flag', 'type': 'Char', 'values': ['Y', 'N']}, '\n",
      "cached_at": "2026-01-12T17:46:16.201580"
    },
    "disease_baseline_colorectal": {
      "tools_called": [
        "get_demographics_baseline_specs",
        "get_baseline_covariates",
        "get_population_definitions",
        "get_study_definitions",
        "get_performance_status_scales"
      ],
      "content": "I'll help you generate the Baseline Characteristics section. Let me first call the relevant knowledge base tools to get the appropriate specifications for colorectal cancer studies.\n[TOOL:get_demographics_baseline_specs]\nError: attempted relative import with no known parent package\n\n[TOOL:get_baseline_covariates]\nError: attempted relative import with no known parent package\n\n[TOOL:get_population_definitions]\n{'itt': {'name': 'Intent-to-Treat (ITT) Population', 'definition': 'All randomized subjects, analyzed according to randomized treatment assignment regardless of actual treatment received.', 'use_for': ['Primary efficacy analysis', 'Regulatory submission'], 'source': 'ICH E9'}, 'mitt': {'name': 'Modified Intent-to-Treat (mITT) Population', 'definition': 'All randomized subjects who received at least one dose of study treatment and had at least one post-baseline efficacy assessment.', 'use_for': ['Supportive efficacy analysis'], 'exclusions': ['No study drug received', 'No post-baseline assessment']}, 'safety': {'name': 'Safety Population', 'definition': 'All subjects who received at least one dose (or partial dose) of study treatment, analyzed according to treatment actually received.', 'use_for': ['All safety analyses', 'AE summaries', 'Laboratory analyses']}, 'per_protocol': {'name': 'Per-Protocol (PP) Population', 'definition': 'All subjects in the ITT population who completed the study without major protocol deviations that could affect efficacy assessment.', 'use_for': ['Supportive/sensitivity efficacy analysis'], 'exclusions': ['Major protocol deviations', 'Inadequate treatment exposure', 'Wrong diagnosis']}, 'evaluable': {'name': 'Evaluable Population', 'definition': 'All subjects who received study treatment and had adequate baseline and post-baseline tumor assessments for response evaluation.', 'use_for': ['Response rate analyses (ORR, CR, PR)']}, 'pharmacokinetic': {'name': 'Pharmacokinetic (PK) Population', 'definition': 'All subjects who received study treatment and had at least one evaluable PK sample.', 'use_for': ['PK analyses', 'Exposure-response analyses']}, 'dlt_evaluable': {'name': 'DLT-Evaluable Population', 'definition': 'All subjects who received the full planned dose during the DLT evaluation period or experienced a DLT.', 'use_for': ['Phase 1 dose-escalation', 'MTD determination']}}\n\n[TOOL:get_study_definitions]\nError: attempted relative import with no known parent package\n\n[TOOL:get_performance_status_scales]\n{'ECOG': {'name': 'ECOG Performance Status', 'categories': ['0', '1', '2', '3', '4', '5'], 'definitions': {'0': 'Fully active, no restrictions', '1': 'Restricted in strenuous activity, ambulatory', '2': 'Ambulatory, capable of self-care, up >50% of waking hours', '3': 'Capable of limited self-care, confined to bed/chair >50%', '4': 'Completely disabled, no self-care', '5': 'Dead'}}, 'Karnofsky': {'name': 'Karnofsky Performance Status', 'categories': ['100', '90', '80', '70', '60', '50', '40', '30', '20', '10', '0'], 'conversion_to_ecog': {'100': '0', '90': '0', '80': '1', '70': '1', '60': '2', '50': '2', '40': '3', '30': '3', '20': '4', '10': '4', '0': '5'}}, 'Lansky': {'name': 'Lansky Play-Performance Scale (pediatric)', 'categories': ['100', '90', '80', '70', '60', '50', '40', '30', '20', '10', '0']}, 'ASA': {'name': 'ASA Physical Status Classification', 'categories': ['I', 'II', 'III', 'IV', 'V', 'VI'], 'definitions': {'I': 'Normal healthy patient', 'II': 'Mild systemic disease', 'III': 'Severe systemic disease', 'IV': 'Severe systemic disease, constant threat to life', 'V': 'Moribund, not expected to survive without operation', 'VI': 'Brain-dead organ donor'}}}\n",
      "cached_at": "2026-01-12T17:46:31.935371"
    },
    "disease_baseline_gastric": {
      "tools_called": [
        "get_demographics_baseline_specs",
        "get_baseline_covariates",
        "get_comprehensive_sap_elements",
        "get_population_definitions",
        "get_statistical_method"
      ],
      "content": "I'll help you generate the Baseline Characteristics section (Section 5A) for your Gastric Cancer SAP. Let me first retrieve the relevant specifications from the knowledge base.\n[TOOL:get_demographics_baseline_specs]\nError: attempted relative import with no known parent package\nLet me try a more specific approach to get the baseline characteristics specifications:\n[TOOL:get_baseline_covariates]\nError: attempted relative import with no known parent package\nLet me try the comprehensive SAP elements function:\n[TOOL:get_comprehensive_sap_elements]\nError: attempted relative import with no known parent package\nLet me try getting the basic population definitions and statistical methods:\n[TOOL:get_population_definitions]\n{'itt': {'name': 'Intent-to-Treat (ITT) Population', 'definition': 'All randomized subjects, analyzed according to randomized treatment assignment regardless of actual treatment received.', 'use_for': ['Primary efficacy analysis', 'Regulatory submission'], 'source': 'ICH E9'}, 'mitt': {'name': 'Modified Intent-to-Treat (mITT) Population', 'definition': 'All randomized subjects who received at least one dose of study treatment and had at least one post-baseline efficacy assessment.', 'use_for': ['Supportive efficacy analysis'], 'exclusions': ['No study drug received', 'No post-baseline assessment']}, 'safety': {'name': 'Safety Population', 'definition': 'All subjects who received at least one dose (or partial dose) of study treatment, analyzed according to treatment actually received.', 'use_for': ['All safety analyses', 'AE summaries', 'Laboratory analyses']}, 'per_protocol': {'name': 'Per-Protocol (PP) Population', 'definition': 'All subjects in the ITT population who completed the study without major protocol deviations that could affect efficacy assessment.', 'use_for': ['Supportive/sensitivity efficacy analysis'], 'exclusions': ['Major protocol deviations', 'Inadequate treatment exposure', 'Wrong diagnosis']}, 'evaluable': {'name': 'Evaluable Population', 'definition': 'All subjects who received study treatment and had adequate baseline and post-baseline tumor assessments for response evaluation.', 'use_for': ['Response rate analyses (ORR, CR, PR)']}, 'pharmacokinetic': {'name': 'Pharmacokinetic (PK) Population', 'definition': 'All subjects who received study treatment and had at least one evaluable PK sample.', 'use_for': ['PK analyses', 'Exposure-response analyses']}, 'dlt_evaluable': {'name': 'DLT-Evaluable Population', 'definition': 'All subjects who received the full planned dose during the DLT evaluation period or experienced a DLT.', 'use_for': ['Phase 1 dose-escalation', 'MTD determination']}}\n\n[TOOL:get_statistical_method]\n{}\n",
      "cached_at": "2026-01-12T17:46:47.095924"
    },
    "disease_baseline_hcc": {
      "tools_called": [
        "get_demographics_baseline_specs",
        "get_baseline_covariates",
        "get_population_definitions",
        "get_study_definitions",
        "get_organ_function_scores"
      ],
      "content": "I'll help you generate the Baseline Characteristics section (Section 5A) for a Hepatocellular Carcinoma study. Let me first retrieve the relevant specifications from the knowledge base.\n[TOOL:get_demographics_baseline_specs]\nError: attempted relative import with no known parent package\nLet me try getting baseline covariates specific to hepatocellular carcinoma:\n[TOOL:get_baseline_covariates]\nError: attempted relative import with no known parent package\nLet me try the general population definitions and study definitions:\n[TOOL:get_population_definitions]\n{'itt': {'name': 'Intent-to-Treat (ITT) Population', 'definition': 'All randomized subjects, analyzed according to randomized treatment assignment regardless of actual treatment received.', 'use_for': ['Primary efficacy analysis', 'Regulatory submission'], 'source': 'ICH E9'}, 'mitt': {'name': 'Modified Intent-to-Treat (mITT) Population', 'definition': 'All randomized subjects who received at least one dose of study treatment and had at least one post-baseline efficacy assessment.', 'use_for': ['Supportive efficacy analysis'], 'exclusions': ['No study drug received', 'No post-baseline assessment']}, 'safety': {'name': 'Safety Population', 'definition': 'All subjects who received at least one dose (or partial dose) of study treatment, analyzed according to treatment actually received.', 'use_for': ['All safety analyses', 'AE summaries', 'Laboratory analyses']}, 'per_protocol': {'name': 'Per-Protocol (PP) Population', 'definition': 'All subjects in the ITT population who completed the study without major protocol deviations that could affect efficacy assessment.', 'use_for': ['Supportive/sensitivity efficacy analysis'], 'exclusions': ['Major protocol deviations', 'Inadequate treatment exposure', 'Wrong diagnosis']}, 'evaluable': {'name': 'Evaluable Population', 'definition': 'All subjects who received study treatment and had adequate baseline and post-baseline tumor assessments for response evaluation.', 'use_for': ['Response rate analyses (ORR, CR, PR)']}, 'pharmacokinetic': {'name': 'Pharmacokinetic (PK) Population', 'definition': 'All subjects who received study treatment and had at least one evaluable PK sample.', 'use_for': ['PK analyses', 'Exposure-response analyses']}, 'dlt_evaluable': {'name': 'DLT-Evaluable Population', 'definition': 'All subjects who received the full planned dose during the DLT evaluation period or experienced a DLT.', 'use_for': ['Phase 1 dose-escalation', 'MTD determination']}}\n\n[TOOL:get_study_definitions]\nError: attempted relative import with no known parent package\nLet me try getting organ function specifications which would be relevant for HCC:\n[TOOL:get_organ_function_scores]\n{'Child_Pugh': {'name': 'Child-Pugh Score', 'indication': 'HCC, liver metastases', 'parameters': ['Bilirubin', 'Albumin', 'INR', 'Ascites', 'Encephalopathy'], 'classes': {'A': '5-6 points', 'B': '7-9 points', 'C': '10-15 points'}}, 'ALBI': {'name': 'Albumin-Bilirubin Grade', 'indication': 'HCC', 'formula': '(log10 bilirubin \u00d7 0.66) + (albumin \u00d7 -0.085)', 'grades': {'1': '\u2264-2.60', '2': '>-2.60 to \u2264-1.39', '3': '>-1.39'}}, 'eGFR_thresholds': {'name': 'Renal Function Categories', 'categories': {'Normal': '\u226590 mL/min/1.73m\u00b2', 'Mild impairment': '60-89 mL/min/1.73m\u00b2', 'Moderate impairment': '30-59 mL/min/1.73m\u00b2', 'Severe impairment': '15-29 mL/min/1.73m\u00b2', 'ESRD': '<15 mL/min/1.73m\u00b2'}}}\n",
      "cached_at": "2026-01-12T17:47:06.387409"
    },
    "disease_baseline_pancreatic": {
      "tools_called": [
        "get_demographics_baseline_specs",
        "get_baseline_covariates",
        "get_comprehensive_sap_elements",
        "get_disposition_tables",
        "get_study_definitions"
      ],
      "content": "I'll help you generate the Baseline Characteristics section (Section 5A) for a pancreatic cancer SAP. Let me first call the relevant tools to get the appropriate specifications.\n[TOOL:get_demographics_baseline_specs]\nError: attempted relative import with no known parent package\nLet me try another approach to get the baseline characteristics specifications:\n[TOOL:get_baseline_covariates]\nError: attempted relative import with no known parent package\nLet me try to get general oncology specifications:\n[TOOL:get_comprehensive_sap_elements]\nError: attempted relative import with no known parent package\nLet me try getting disposition tables which often include baseline characteristics:\n[TOOL:get_disposition_tables]\n{'14.1.1': {'title': 'Subject Disposition', 'population': 'All Screened', 'columns': ['Category', 'Treatment A (N=XXX)', 'Treatment B (N=XXX)', 'Total (N=XXX)'], 'rows': ['Screened', 'Screen Failures', '  Did not meet eligibility criteria', '  Withdrew consent', '  Lost to follow-up', '  Adverse event', '  Other', 'Randomized', 'Not Treated', 'Treated (Safety Population)', 'Completed Treatment', 'Discontinued Treatment', '  Adverse Event', '  Disease Progression', '  Physician Decision', '  Subject Withdrawal', '  Lost to Follow-up', '  Protocol Deviation', '  Death', '  Other', 'Completed Study', 'Ongoing'], 'statistics': 'n (%)', 'footnotes': ['Percentages based on number screened for screening rows, number randomized for disposition rows.', 'A subject may have multiple reasons for screen failure or discontinuation.']}, '14.1.2': {'title': 'Demographics and Baseline Characteristics (ITT Population)', 'population': 'ITT', 'parameters': [{'name': 'Age (years)', 'statistics': ['n', 'Mean (SD)', 'Median', 'Min, Max']}, {'name': 'Age Group', 'categories': ['<65 years', '65 to <75 years', '>=75 years'], 'statistics': 'n (%)'}, {'name': 'Sex', 'categories': ['Male', 'Female'], 'statistics': 'n (%)'}, {'name': 'Race', 'categories': ['White', 'Black or African American', 'Asian', 'American Indian or Alaska Native', 'Native Hawaiian or Other Pacific Islander', 'Multiple', 'Other', 'Not Reported'], 'statistics': 'n (%)'}, {'name': 'Ethnicity', 'categories': ['Hispanic or Latino', 'Not Hispanic or Latino', 'Not Reported'], 'statistics': 'n (%)'}, {'name': 'Weight (kg)', 'statistics': ['n', 'Mean (SD)', 'Median', 'Min, Max']}, {'name': 'Height (cm)', 'statistics': ['n', 'Mean (SD)', 'Median', 'Min, Max']}, {'name': 'BMI (kg/m^2)', 'statistics': ['n', 'Mean (SD)', 'Median', 'Min, Max']}, {'name': 'BSA (m^2)', 'statistics': ['n', 'Mean (SD)', 'Median', 'Min, Max']}, {'name': 'ECOG Performance Status', 'categories': ['0', '1', '2'], 'statistics': 'n (%)'}, {'name': 'Geographic Re\nNow let me get study definitions to understand baseline timing:\n[TOOL:get_study_definitions]\nError: attempted relative import with no known parent package\n",
      "cached_at": "2026-01-12T17:47:23.456663"
    },
    "disease_baseline_prostate": {
      "tools_called": [
        "get_demographics_baseline_specs",
        "get_baseline_covariates",
        "get_study_definitions",
        "get_disposition_tables",
        "get_statistical_method"
      ],
      "content": "I'll help you generate the Baseline Characteristics section. Let me first call the appropriate knowledge base tools to get relevant specifications for prostate cancer studies.\n[TOOL:get_demographics_baseline_specs]\nError: attempted relative import with no known parent package\nLet me try getting prostate-specific baseline covariates:\n[TOOL:get_baseline_covariates]\nError: attempted relative import with no known parent package\nLet me try getting the study definitions and then general baseline specifications:\n[TOOL:get_study_definitions]\nError: attempted relative import with no known parent package\n\n[TOOL:get_disposition_tables]\n{'14.1.1': {'title': 'Subject Disposition', 'population': 'All Screened', 'columns': ['Category', 'Treatment A (N=XXX)', 'Treatment B (N=XXX)', 'Total (N=XXX)'], 'rows': ['Screened', 'Screen Failures', '  Did not meet eligibility criteria', '  Withdrew consent', '  Lost to follow-up', '  Adverse event', '  Other', 'Randomized', 'Not Treated', 'Treated (Safety Population)', 'Completed Treatment', 'Discontinued Treatment', '  Adverse Event', '  Disease Progression', '  Physician Decision', '  Subject Withdrawal', '  Lost to Follow-up', '  Protocol Deviation', '  Death', '  Other', 'Completed Study', 'Ongoing'], 'statistics': 'n (%)', 'footnotes': ['Percentages based on number screened for screening rows, number randomized for disposition rows.', 'A subject may have multiple reasons for screen failure or discontinuation.']}, '14.1.2': {'title': 'Demographics and Baseline Characteristics (ITT Population)', 'population': 'ITT', 'parameters': [{'name': 'Age (years)', 'statistics': ['n', 'Mean (SD)', 'Median', 'Min, Max']}, {'name': 'Age Group', 'categories': ['<65 years', '65 to <75 years', '>=75 years'], 'statistics': 'n (%)'}, {'name': 'Sex', 'categories': ['Male', 'Female'], 'statistics': 'n (%)'}, {'name': 'Race', 'categories': ['White', 'Black or African American', 'Asian', 'American Indian or Alaska Native', 'Native Hawaiian or Other Pacific Islander', 'Multiple', 'Other', 'Not Reported'], 'statistics': 'n (%)'}, {'name': 'Ethnicity', 'categories': ['Hispanic or Latino', 'Not Hispanic or Latino', 'Not Reported'], 'statistics': 'n (%)'}, {'name': 'Weight (kg)', 'statistics': ['n', 'Mean (SD)', 'Median', 'Min, Max']}, {'name': 'Height (cm)', 'statistics': ['n', 'Mean (SD)', 'Median', 'Min, Max']}, {'name': 'BMI (kg/m^2)', 'statistics': ['n', 'Mean (SD)', 'Median', 'Min, Max']}, {'name': 'BSA (m^2)', 'statistics': ['n', 'Mean (SD)', 'Median', 'Min, Max']}, {'name': 'ECOG Performance Status', 'categories': ['0', '1', '2'], 'statistics': 'n (%)'}, {'name': 'Geographic Re\nLet me try to get more specific prostate cancer baseline characteristics:\n[TOOL:get_statistical_method]\n{}\n",
      "cached_at": "2026-01-12T17:47:39.156862"
    },
    "disease_baseline_ovarian": {
      "tools_called": [
        "get_demographics_baseline_specs",
        "get_baseline_covariates",
        "get_population_definitions",
        "get_statistical_method",
        "get_comprehensive_sap_elements"
      ],
      "content": "I'll help you generate the Baseline Characteristics section (Section 5A) for your ovarian cancer SAP. Let me first retrieve the relevant specifications from the knowledge base.\n[TOOL:get_demographics_baseline_specs]\nError: attempted relative import with no known parent package\n\n[TOOL:get_baseline_covariates]\nError: attempted relative import with no known parent package\n\n[TOOL:get_population_definitions]\n{'itt': {'name': 'Intent-to-Treat (ITT) Population', 'definition': 'All randomized subjects, analyzed according to randomized treatment assignment regardless of actual treatment received.', 'use_for': ['Primary efficacy analysis', 'Regulatory submission'], 'source': 'ICH E9'}, 'mitt': {'name': 'Modified Intent-to-Treat (mITT) Population', 'definition': 'All randomized subjects who received at least one dose of study treatment and had at least one post-baseline efficacy assessment.', 'use_for': ['Supportive efficacy analysis'], 'exclusions': ['No study drug received', 'No post-baseline assessment']}, 'safety': {'name': 'Safety Population', 'definition': 'All subjects who received at least one dose (or partial dose) of study treatment, analyzed according to treatment actually received.', 'use_for': ['All safety analyses', 'AE summaries', 'Laboratory analyses']}, 'per_protocol': {'name': 'Per-Protocol (PP) Population', 'definition': 'All subjects in the ITT population who completed the study without major protocol deviations that could affect efficacy assessment.', 'use_for': ['Supportive/sensitivity efficacy analysis'], 'exclusions': ['Major protocol deviations', 'Inadequate treatment exposure', 'Wrong diagnosis']}, 'evaluable': {'name': 'Evaluable Population', 'definition': 'All subjects who received study treatment and had adequate baseline and post-baseline tumor assessments for response evaluation.', 'use_for': ['Response rate analyses (ORR, CR, PR)']}, 'pharmacokinetic': {'name': 'Pharmacokinetic (PK) Population', 'definition': 'All subjects who received study treatment and had at least one evaluable PK sample.', 'use_for': ['PK analyses', 'Exposure-response analyses']}, 'dlt_evaluable': {'name': 'DLT-Evaluable Population', 'definition': 'All subjects who received the full planned dose during the DLT evaluation period or experienced a DLT.', 'use_for': ['Phase 1 dose-escalation', 'MTD determination']}}\n\n[TOOL:get_statistical_method]\n{}\nLet me try a more comprehensive approach to get the specifications:\n[TOOL:get_comprehensive_sap_elements]\nError: attempted relative import with no known parent package\n",
      "cached_at": "2026-01-12T17:47:49.390383"
    },
    "disease_baseline_melanoma": {
      "tools_called": [
        "get_demographics_baseline_specs",
        "get_baseline_covariates",
        "get_population_definitions",
        "get_performance_status_scales",
        "get_similar_trials"
      ],
      "content": "I'll help you generate the Baseline Characteristics section for a melanoma SAP. Let me first retrieve the relevant specifications from the knowledge base.\n[TOOL:get_demographics_baseline_specs]\nError: attempted relative import with no known parent package\nLet me try a different approach to get the baseline characteristics specifications:\n[TOOL:get_baseline_covariates]\nError: attempted relative import with no known parent package\n\n[TOOL:get_population_definitions]\n{'itt': {'name': 'Intent-to-Treat (ITT) Population', 'definition': 'All randomized subjects, analyzed according to randomized treatment assignment regardless of actual treatment received.', 'use_for': ['Primary efficacy analysis', 'Regulatory submission'], 'source': 'ICH E9'}, 'mitt': {'name': 'Modified Intent-to-Treat (mITT) Population', 'definition': 'All randomized subjects who received at least one dose of study treatment and had at least one post-baseline efficacy assessment.', 'use_for': ['Supportive efficacy analysis'], 'exclusions': ['No study drug received', 'No post-baseline assessment']}, 'safety': {'name': 'Safety Population', 'definition': 'All subjects who received at least one dose (or partial dose) of study treatment, analyzed according to treatment actually received.', 'use_for': ['All safety analyses', 'AE summaries', 'Laboratory analyses']}, 'per_protocol': {'name': 'Per-Protocol (PP) Population', 'definition': 'All subjects in the ITT population who completed the study without major protocol deviations that could affect efficacy assessment.', 'use_for': ['Supportive/sensitivity efficacy analysis'], 'exclusions': ['Major protocol deviations', 'Inadequate treatment exposure', 'Wrong diagnosis']}, 'evaluable': {'name': 'Evaluable Population', 'definition': 'All subjects who received study treatment and had adequate baseline and post-baseline tumor assessments for response evaluation.', 'use_for': ['Response rate analyses (ORR, CR, PR)']}, 'pharmacokinetic': {'name': 'Pharmacokinetic (PK) Population', 'definition': 'All subjects who received study treatment and had at least one evaluable PK sample.', 'use_for': ['PK analyses', 'Exposure-response analyses']}, 'dlt_evaluable': {'name': 'DLT-Evaluable Population', 'definition': 'All subjects who received the full planned dose during the DLT evaluation period or experienced a DLT.', 'use_for': ['Phase 1 dose-escalation', 'MTD determination']}}\n\n[TOOL:get_performance_status_scales]\n{'ECOG': {'name': 'ECOG Performance Status', 'categories': ['0', '1', '2', '3', '4', '5'], 'definitions': {'0': 'Fully active, no restrictions', '1': 'Restricted in strenuous activity, ambulatory', '2': 'Ambulatory, capable of self-care, up >50% of waking hours', '3': 'Capable of limited self-care, confined to bed/chair >50%', '4': 'Completely disabled, no self-care', '5': 'Dead'}}, 'Karnofsky': {'name': 'Karnofsky Performance Status', 'categories': ['100', '90', '80', '70', '60', '50', '40', '30', '20', '10', '0'], 'conversion_to_ecog': {'100': '0', '90': '0', '80': '1', '70': '1', '60': '2', '50': '2', '40': '3', '30': '3', '20': '4', '10': '4', '0': '5'}}, 'Lansky': {'name': 'Lansky Play-Performance Scale (pediatric)', 'categories': ['100', '90', '80', '70', '60', '50', '40', '30', '20', '10', '0']}, 'ASA': {'name': 'ASA Physical Status Classification', 'categories': ['I', 'II', 'III', 'IV', 'V', 'VI'], 'definitions': {'I': 'Normal healthy patient', 'II': 'Mild systemic disease', 'III': 'Severe systemic disease', 'IV': 'Severe systemic disease, constant threat to life', 'V': 'Moribund, not expected to survive without operation', 'VI': 'Brain-dead organ donor'}}}\n\n[TOOL:get_similar_trials]\n{'query': {'phase': None, 'indication': 'melanoma', 'endpoint_type': 'PFS', 'design_type': 'randomized'}, 'citation_instruction': 'When using precedent data, cite as: [Precedent: TRIAL_NAME (Phase, Indication) - specific element]', 'num_matches': 5, 'similar_trials': [{'trial_id': 'CA2098HW', 'phase': '3', 'indication': 'Microsatellite Instability High (MSI-H) or Mismatch Repair Deficient (dMMR) Metastatic Colorectal Cancer', 'design': 'Randomized, 3-arm open-label study', 'source_sap': 'CheckMate-8HW_SAP', 'relevance_score': 128, 'precedent_data': {'endpoints': [{'name': 'PFS by BICR (arm B vs A) - All lines', 'endpoint_type': 'Primary', 'definition': 'BICR-assessed progression-free survival defined as time from randomization date to date of first objectively documented disease progression per RECIST 1.1 or death due to any cause, whichever occurs first'}, {'name': 'PFS by BICR (arm B vs C) - 1L', 'endpoint_type': 'Primary', 'definition': 'BICR-assessed progression-free survival in participants who have not received prior treatment for metastatic disease randomized to nivolumab plus ipilimumab vs chemotherapy'}, {'name': 'ORR by BICR (arm B vs A) - All lines', 'endpoint_type': 'Secondary', 'definition': 'BICR-assessed objective response rate comparison between nivolumab plus ipilimumab vs nivolumab monotherapy'}, {'name': 'OS (arm B vs A) - All lines', 'endpoint_type': 'Secondary', 'definition': 'Overall survival comparison between nivolumab plus ipilimumab vs nivolumab monotherapy'}, {'name': 'PFS by BICR (arm B vs A) - 1L', 'endpoint_type': 'Secondary', 'definition': 'BICR-assessed progression-free survival in 1L participants randomized to nivolumab plus ipilimumab vs nivolumab monotherapy'}], 'censoring_rules': [{'endpoint': 'PFS', 'event': 'First objectively documented disease progression per RECIST 1.1 or death due to any cause', 'censoring': 'Participants who die without reported prior progression and without initiation of subsequent anti-cancer therapy consi\n",
      "cached_at": "2026-01-12T17:48:02.162215"
    },
    "disease_baseline_rcc": {
      "tools_called": [
        "get_demographics_baseline_specs",
        "get_baseline_covariates",
        "get_comprehensive_sap_elements",
        "get_population_definitions",
        "get_study_definitions"
      ],
      "content": "I'll help you generate the Baseline Characteristics section (Section 5A) for a Renal Cell Carcinoma SAP. Let me first retrieve the relevant specifications from the knowledge base.\n[TOOL:get_demographics_baseline_specs]\nError: attempted relative import with no known parent package\nLet me try a more specific approach to get baseline characteristics specifications:\n[TOOL:get_baseline_covariates]\nError: attempted relative import with no known parent package\nLet me try getting general oncology specifications:\n[TOOL:get_comprehensive_sap_elements]\nError: attempted relative import with no known parent package\nLet me try getting population definitions and study definitions which are fundamental for baseline characteristics:\n[TOOL:get_population_definitions]\n{'itt': {'name': 'Intent-to-Treat (ITT) Population', 'definition': 'All randomized subjects, analyzed according to randomized treatment assignment regardless of actual treatment received.', 'use_for': ['Primary efficacy analysis', 'Regulatory submission'], 'source': 'ICH E9'}, 'mitt': {'name': 'Modified Intent-to-Treat (mITT) Population', 'definition': 'All randomized subjects who received at least one dose of study treatment and had at least one post-baseline efficacy assessment.', 'use_for': ['Supportive efficacy analysis'], 'exclusions': ['No study drug received', 'No post-baseline assessment']}, 'safety': {'name': 'Safety Population', 'definition': 'All subjects who received at least one dose (or partial dose) of study treatment, analyzed according to treatment actually received.', 'use_for': ['All safety analyses', 'AE summaries', 'Laboratory analyses']}, 'per_protocol': {'name': 'Per-Protocol (PP) Population', 'definition': 'All subjects in the ITT population who completed the study without major protocol deviations that could affect efficacy assessment.', 'use_for': ['Supportive/sensitivity efficacy analysis'], 'exclusions': ['Major protocol deviations', 'Inadequate treatment exposure', 'Wrong diagnosis']}, 'evaluable': {'name': 'Evaluable Population', 'definition': 'All subjects who received study treatment and had adequate baseline and post-baseline tumor assessments for response evaluation.', 'use_for': ['Response rate analyses (ORR, CR, PR)']}, 'pharmacokinetic': {'name': 'Pharmacokinetic (PK) Population', 'definition': 'All subjects who received study treatment and had at least one evaluable PK sample.', 'use_for': ['PK analyses', 'Exposure-response analyses']}, 'dlt_evaluable': {'name': 'DLT-Evaluable Population', 'definition': 'All subjects who received the full planned dose during the DLT evaluation period or experienced a DLT.', 'use_for': ['Phase 1 dose-escalation', 'MTD determination']}}\n\n[TOOL:get_study_definitions]\nError: attempted relative import with no known parent package\n",
      "cached_at": "2026-01-12T17:48:14.474051"
    },
    "disease_baseline_bladder": {
      "tools_called": [
        "get_demographics_baseline_specs",
        "get_baseline_covariates",
        "get_study_definitions",
        "get_population_definitions",
        "get_comprehensive_sap_elements"
      ],
      "content": "I'll help you generate the Baseline Characteristics section for your bladder cancer SAP. Let me first retrieve the relevant specifications from the knowledge base.\n[TOOL:get_demographics_baseline_specs]\nError: attempted relative import with no known parent package\nLet me try getting the baseline covariates specifically for solid tumors, which would include bladder cancer:\n[TOOL:get_baseline_covariates]\nError: attempted relative import with no known parent package\nLet me get the general study definitions and try another approach:\n[TOOL:get_study_definitions]\nError: attempted relative import with no known parent package\n\n[TOOL:get_population_definitions]\n{'itt': {'name': 'Intent-to-Treat (ITT) Population', 'definition': 'All randomized subjects, analyzed according to randomized treatment assignment regardless of actual treatment received.', 'use_for': ['Primary efficacy analysis', 'Regulatory submission'], 'source': 'ICH E9'}, 'mitt': {'name': 'Modified Intent-to-Treat (mITT) Population', 'definition': 'All randomized subjects who received at least one dose of study treatment and had at least one post-baseline efficacy assessment.', 'use_for': ['Supportive efficacy analysis'], 'exclusions': ['No study drug received', 'No post-baseline assessment']}, 'safety': {'name': 'Safety Population', 'definition': 'All subjects who received at least one dose (or partial dose) of study treatment, analyzed according to treatment actually received.', 'use_for': ['All safety analyses', 'AE summaries', 'Laboratory analyses']}, 'per_protocol': {'name': 'Per-Protocol (PP) Population', 'definition': 'All subjects in the ITT population who completed the study without major protocol deviations that could affect efficacy assessment.', 'use_for': ['Supportive/sensitivity efficacy analysis'], 'exclusions': ['Major protocol deviations', 'Inadequate treatment exposure', 'Wrong diagnosis']}, 'evaluable': {'name': 'Evaluable Population', 'definition': 'All subjects who received study treatment and had adequate baseline and post-baseline tumor assessments for response evaluation.', 'use_for': ['Response rate analyses (ORR, CR, PR)']}, 'pharmacokinetic': {'name': 'Pharmacokinetic (PK) Population', 'definition': 'All subjects who received study treatment and had at least one evaluable PK sample.', 'use_for': ['PK analyses', 'Exposure-response analyses']}, 'dlt_evaluable': {'name': 'DLT-Evaluable Population', 'definition': 'All subjects who received the full planned dose during the DLT evaluation period or experienced a DLT.', 'use_for': ['Phase 1 dose-escalation', 'MTD determination']}}\nGood! Now let me get comprehensive SAP elements for oncology studies:\n[TOOL:get_comprehensive_sap_elements]\nError: attempted relative import with no known parent package\n",
      "cached_at": "2026-01-12T17:48:35.562767"
    },
    "disease_baseline_head_neck": {
      "tools_called": [
        "get_demographics_baseline_specs",
        "get_baseline_covariates",
        "get_population_definitions",
        "get_study_definitions",
        "get_adam_dataset_spec"
      ],
      "content": "I'll help you generate the Baseline Characteristics section by first retrieving the relevant specifications from the knowledge base.\n[TOOL:get_demographics_baseline_specs]\nError: attempted relative import with no known parent package\nLet me try getting the baseline covariates for solid tumor studies since head and neck cancer falls under this category:\n[TOOL:get_baseline_covariates]\nError: attempted relative import with no known parent package\nLet me try another approach and get general population definitions and study definitions that are relevant for baseline characteristics:\n[TOOL:get_population_definitions]\n{'itt': {'name': 'Intent-to-Treat (ITT) Population', 'definition': 'All randomized subjects, analyzed according to randomized treatment assignment regardless of actual treatment received.', 'use_for': ['Primary efficacy analysis', 'Regulatory submission'], 'source': 'ICH E9'}, 'mitt': {'name': 'Modified Intent-to-Treat (mITT) Population', 'definition': 'All randomized subjects who received at least one dose of study treatment and had at least one post-baseline efficacy assessment.', 'use_for': ['Supportive efficacy analysis'], 'exclusions': ['No study drug received', 'No post-baseline assessment']}, 'safety': {'name': 'Safety Population', 'definition': 'All subjects who received at least one dose (or partial dose) of study treatment, analyzed according to treatment actually received.', 'use_for': ['All safety analyses', 'AE summaries', 'Laboratory analyses']}, 'per_protocol': {'name': 'Per-Protocol (PP) Population', 'definition': 'All subjects in the ITT population who completed the study without major protocol deviations that could affect efficacy assessment.', 'use_for': ['Supportive/sensitivity efficacy analysis'], 'exclusions': ['Major protocol deviations', 'Inadequate treatment exposure', 'Wrong diagnosis']}, 'evaluable': {'name': 'Evaluable Population', 'definition': 'All subjects who received study treatment and had adequate baseline and post-baseline tumor assessments for response evaluation.', 'use_for': ['Response rate analyses (ORR, CR, PR)']}, 'pharmacokinetic': {'name': 'Pharmacokinetic (PK) Population', 'definition': 'All subjects who received study treatment and had at least one evaluable PK sample.', 'use_for': ['PK analyses', 'Exposure-response analyses']}, 'dlt_evaluable': {'name': 'DLT-Evaluable Population', 'definition': 'All subjects who received the full planned dose during the DLT evaluation period or experienced a DLT.', 'use_for': ['Phase 1 dose-escalation', 'MTD determination']}}\n\n[TOOL:get_study_definitions]\nError: attempted relative import with no known parent package\n\n[TOOL:get_adam_dataset_spec]\n{'name': 'Subject-Level Analysis Dataset', 'description': 'One record per subject with demographics, baseline, and disposition', 'key_variables': {'identifiers': {'STUDYID': {'label': 'Study Identifier', 'type': 'Char'}, 'USUBJID': {'label': 'Unique Subject Identifier', 'type': 'Char'}, 'SUBJID': {'label': 'Subject Identifier for the Study', 'type': 'Char'}, 'SITEID': {'label': 'Study Site Identifier', 'type': 'Char'}}, 'treatment': {'TRT01P': {'label': 'Planned Treatment for Period 01', 'type': 'Char'}, 'TRT01PN': {'label': 'Planned Treatment for Period 01 (N)', 'type': 'Num'}, 'TRT01A': {'label': 'Actual Treatment for Period 01', 'type': 'Char'}, 'TRT01AN': {'label': 'Actual Treatment for Period 01 (N)', 'type': 'Num'}, 'TRTSDT': {'label': 'Date of First Exposure to Treatment', 'type': 'Num', 'format': 'DATE9.'}, 'TRTEDT': {'label': 'Date of Last Exposure to Treatment', 'type': 'Num', 'format': 'DATE9.'}, 'TRTDUR': {'label': 'Treatment Duration (days)', 'type': 'Num'}}, 'demographics': {'AGE': {'label': 'Age (years)', 'type': 'Num', 'derivation': '(RFSTDTC - BRTHDTC) / 365.25'}, 'AGEGR1': {'label': 'Pooled Age Group 1', 'type': 'Char', 'categories': ['<65', '>=65']}, 'AGEGR1N': {'label': 'Pooled Age Group 1 (N)', 'type': 'Num'}, 'SEX': {'label': 'Sex', 'type': 'Char'}, 'RACE': {'label': 'Race', 'type': 'Char'}, 'ETHNIC': {'label': 'Ethnicity', 'type': 'Char'}, 'COUNTRY': {'label': 'Country', 'type': 'Char'}}, 'baseline': {'HEIGHTBL': {'label': 'Baseline Height (cm)', 'type': 'Num'}, 'WEIGHTBL': {'label': 'Baseline Weight (kg)', 'type': 'Num'}, 'BMIBL': {'label': 'Baseline BMI (kg/m^2)', 'type': 'Num', 'derivation': 'WEIGHTBL / (HEIGHTBL/100)^2'}, 'ECOGBL': {'label': 'Baseline ECOG PS', 'type': 'Num'}, 'ECOGBLC': {'label': 'Baseline ECOG PS Category', 'type': 'Char'}}, 'population_flags': {'ITTFL': {'label': 'Intent-to-Treat Population Flag', 'type': 'Char', 'values': ['Y', 'N']}, 'SAFFL': {'label': 'Safety Population Flag', 'type': 'Char', 'values': ['Y', 'N']}, '\n",
      "cached_at": "2026-01-12T17:48:48.918650"
    },
    "disease_baseline_glioblastoma": {
      "tools_called": [
        "get_demographics_baseline_specs",
        "get_baseline_covariates",
        "get_population_definitions",
        "get_study_definitions",
        "get_performance_status_scales"
      ],
      "content": "I'll help you generate the Baseline Characteristics section for your glioblastoma SAP. Let me first call the relevant tools to get the appropriate specifications.\n[TOOL:get_demographics_baseline_specs]\nError: attempted relative import with no known parent package\nLet me try getting the baseline covariates specifically for solid tumors and then get general demographics specifications:\n[TOOL:get_baseline_covariates]\nError: attempted relative import with no known parent package\nLet me try the population definitions and study definitions which should be relevant for baseline characteristics:\n[TOOL:get_population_definitions]\n{'itt': {'name': 'Intent-to-Treat (ITT) Population', 'definition': 'All randomized subjects, analyzed according to randomized treatment assignment regardless of actual treatment received.', 'use_for': ['Primary efficacy analysis', 'Regulatory submission'], 'source': 'ICH E9'}, 'mitt': {'name': 'Modified Intent-to-Treat (mITT) Population', 'definition': 'All randomized subjects who received at least one dose of study treatment and had at least one post-baseline efficacy assessment.', 'use_for': ['Supportive efficacy analysis'], 'exclusions': ['No study drug received', 'No post-baseline assessment']}, 'safety': {'name': 'Safety Population', 'definition': 'All subjects who received at least one dose (or partial dose) of study treatment, analyzed according to treatment actually received.', 'use_for': ['All safety analyses', 'AE summaries', 'Laboratory analyses']}, 'per_protocol': {'name': 'Per-Protocol (PP) Population', 'definition': 'All subjects in the ITT population who completed the study without major protocol deviations that could affect efficacy assessment.', 'use_for': ['Supportive/sensitivity efficacy analysis'], 'exclusions': ['Major protocol deviations', 'Inadequate treatment exposure', 'Wrong diagnosis']}, 'evaluable': {'name': 'Evaluable Population', 'definition': 'All subjects who received study treatment and had adequate baseline and post-baseline tumor assessments for response evaluation.', 'use_for': ['Response rate analyses (ORR, CR, PR)']}, 'pharmacokinetic': {'name': 'Pharmacokinetic (PK) Population', 'definition': 'All subjects who received study treatment and had at least one evaluable PK sample.', 'use_for': ['PK analyses', 'Exposure-response analyses']}, 'dlt_evaluable': {'name': 'DLT-Evaluable Population', 'definition': 'All subjects who received the full planned dose during the DLT evaluation period or experienced a DLT.', 'use_for': ['Phase 1 dose-escalation', 'MTD determination']}}\n\n[TOOL:get_study_definitions]\nError: attempted relative import with no known parent package\n\n[TOOL:get_performance_status_scales]\n{'ECOG': {'name': 'ECOG Performance Status', 'categories': ['0', '1', '2', '3', '4', '5'], 'definitions': {'0': 'Fully active, no restrictions', '1': 'Restricted in strenuous activity, ambulatory', '2': 'Ambulatory, capable of self-care, up >50% of waking hours', '3': 'Capable of limited self-care, confined to bed/chair >50%', '4': 'Completely disabled, no self-care', '5': 'Dead'}}, 'Karnofsky': {'name': 'Karnofsky Performance Status', 'categories': ['100', '90', '80', '70', '60', '50', '40', '30', '20', '10', '0'], 'conversion_to_ecog': {'100': '0', '90': '0', '80': '1', '70': '1', '60': '2', '50': '2', '40': '3', '30': '3', '20': '4', '10': '4', '0': '5'}}, 'Lansky': {'name': 'Lansky Play-Performance Scale (pediatric)', 'categories': ['100', '90', '80', '70', '60', '50', '40', '30', '20', '10', '0']}, 'ASA': {'name': 'ASA Physical Status Classification', 'categories': ['I', 'II', 'III', 'IV', 'V', 'VI'], 'definitions': {'I': 'Normal healthy patient', 'II': 'Mild systemic disease', 'III': 'Severe systemic disease', 'IV': 'Severe systemic disease, constant threat to life', 'V': 'Moribund, not expected to survive without operation', 'VI': 'Brain-dead organ donor'}}}\n",
      "cached_at": "2026-01-12T17:49:01.822446"
    },
    "disease_baseline_thyroid": {
      "tools_called": [
        "get_demographics_baseline_specs",
        "get_baseline_covariates",
        "get_population_definitions",
        "get_study_definitions",
        "get_performance_status_scales"
      ],
      "content": "I'll help you generate the Baseline Characteristics section for a thyroid cancer study. Let me first call the relevant tools to get the appropriate specifications.\n[TOOL:get_demographics_baseline_specs]\nError: attempted relative import with no known parent package\nLet me try getting the baseline covariates for solid tumors since thyroid cancer is a solid tumor:\n[TOOL:get_baseline_covariates]\nError: attempted relative import with no known parent package\nLet me try getting population definitions and other relevant specifications:\n[TOOL:get_population_definitions]\n{'itt': {'name': 'Intent-to-Treat (ITT) Population', 'definition': 'All randomized subjects, analyzed according to randomized treatment assignment regardless of actual treatment received.', 'use_for': ['Primary efficacy analysis', 'Regulatory submission'], 'source': 'ICH E9'}, 'mitt': {'name': 'Modified Intent-to-Treat (mITT) Population', 'definition': 'All randomized subjects who received at least one dose of study treatment and had at least one post-baseline efficacy assessment.', 'use_for': ['Supportive efficacy analysis'], 'exclusions': ['No study drug received', 'No post-baseline assessment']}, 'safety': {'name': 'Safety Population', 'definition': 'All subjects who received at least one dose (or partial dose) of study treatment, analyzed according to treatment actually received.', 'use_for': ['All safety analyses', 'AE summaries', 'Laboratory analyses']}, 'per_protocol': {'name': 'Per-Protocol (PP) Population', 'definition': 'All subjects in the ITT population who completed the study without major protocol deviations that could affect efficacy assessment.', 'use_for': ['Supportive/sensitivity efficacy analysis'], 'exclusions': ['Major protocol deviations', 'Inadequate treatment exposure', 'Wrong diagnosis']}, 'evaluable': {'name': 'Evaluable Population', 'definition': 'All subjects who received study treatment and had adequate baseline and post-baseline tumor assessments for response evaluation.', 'use_for': ['Response rate analyses (ORR, CR, PR)']}, 'pharmacokinetic': {'name': 'Pharmacokinetic (PK) Population', 'definition': 'All subjects who received study treatment and had at least one evaluable PK sample.', 'use_for': ['PK analyses', 'Exposure-response analyses']}, 'dlt_evaluable': {'name': 'DLT-Evaluable Population', 'definition': 'All subjects who received the full planned dose during the DLT evaluation period or experienced a DLT.', 'use_for': ['Phase 1 dose-escalation', 'MTD determination']}}\n\n[TOOL:get_study_definitions]\nError: attempted relative import with no known parent package\n\n[TOOL:get_performance_status_scales]\n{'ECOG': {'name': 'ECOG Performance Status', 'categories': ['0', '1', '2', '3', '4', '5'], 'definitions': {'0': 'Fully active, no restrictions', '1': 'Restricted in strenuous activity, ambulatory', '2': 'Ambulatory, capable of self-care, up >50% of waking hours', '3': 'Capable of limited self-care, confined to bed/chair >50%', '4': 'Completely disabled, no self-care', '5': 'Dead'}}, 'Karnofsky': {'name': 'Karnofsky Performance Status', 'categories': ['100', '90', '80', '70', '60', '50', '40', '30', '20', '10', '0'], 'conversion_to_ecog': {'100': '0', '90': '0', '80': '1', '70': '1', '60': '2', '50': '2', '40': '3', '30': '3', '20': '4', '10': '4', '0': '5'}}, 'Lansky': {'name': 'Lansky Play-Performance Scale (pediatric)', 'categories': ['100', '90', '80', '70', '60', '50', '40', '30', '20', '10', '0']}, 'ASA': {'name': 'ASA Physical Status Classification', 'categories': ['I', 'II', 'III', 'IV', 'V', 'VI'], 'definitions': {'I': 'Normal healthy patient', 'II': 'Mild systemic disease', 'III': 'Severe systemic disease', 'IV': 'Severe systemic disease, constant threat to life', 'V': 'Moribund, not expected to survive without operation', 'VI': 'Brain-dead organ donor'}}}\n",
      "cached_at": "2026-01-12T17:49:19.224248"
    },
    "disease_baseline_sarcoma": {
      "tools_called": [
        "get_demographics_baseline_specs",
        "get_baseline_covariates",
        "get_population_definitions",
        "get_study_definitions",
        "get_performance_status_scales"
      ],
      "content": "I'll help you generate the Baseline Characteristics section for your sarcoma study. Let me first gather the relevant specifications from the knowledge base.\n[TOOL:get_demographics_baseline_specs]\nError: attempted relative import with no known parent package\nLet me try getting the baseline covariate specifications for solid tumors since sarcoma falls under that category:\n[TOOL:get_baseline_covariates]\nError: attempted relative import with no known parent package\nLet me try getting the population definitions and study definitions that are relevant for baseline characteristics:\n[TOOL:get_population_definitions]\n{'itt': {'name': 'Intent-to-Treat (ITT) Population', 'definition': 'All randomized subjects, analyzed according to randomized treatment assignment regardless of actual treatment received.', 'use_for': ['Primary efficacy analysis', 'Regulatory submission'], 'source': 'ICH E9'}, 'mitt': {'name': 'Modified Intent-to-Treat (mITT) Population', 'definition': 'All randomized subjects who received at least one dose of study treatment and had at least one post-baseline efficacy assessment.', 'use_for': ['Supportive efficacy analysis'], 'exclusions': ['No study drug received', 'No post-baseline assessment']}, 'safety': {'name': 'Safety Population', 'definition': 'All subjects who received at least one dose (or partial dose) of study treatment, analyzed according to treatment actually received.', 'use_for': ['All safety analyses', 'AE summaries', 'Laboratory analyses']}, 'per_protocol': {'name': 'Per-Protocol (PP) Population', 'definition': 'All subjects in the ITT population who completed the study without major protocol deviations that could affect efficacy assessment.', 'use_for': ['Supportive/sensitivity efficacy analysis'], 'exclusions': ['Major protocol deviations', 'Inadequate treatment exposure', 'Wrong diagnosis']}, 'evaluable': {'name': 'Evaluable Population', 'definition': 'All subjects who received study treatment and had adequate baseline and post-baseline tumor assessments for response evaluation.', 'use_for': ['Response rate analyses (ORR, CR, PR)']}, 'pharmacokinetic': {'name': 'Pharmacokinetic (PK) Population', 'definition': 'All subjects who received study treatment and had at least one evaluable PK sample.', 'use_for': ['PK analyses', 'Exposure-response analyses']}, 'dlt_evaluable': {'name': 'DLT-Evaluable Population', 'definition': 'All subjects who received the full planned dose during the DLT evaluation period or experienced a DLT.', 'use_for': ['Phase 1 dose-escalation', 'MTD determination']}}\n\n[TOOL:get_study_definitions]\nError: attempted relative import with no known parent package\n\n[TOOL:get_performance_status_scales]\n{'ECOG': {'name': 'ECOG Performance Status', 'categories': ['0', '1', '2', '3', '4', '5'], 'definitions': {'0': 'Fully active, no restrictions', '1': 'Restricted in strenuous activity, ambulatory', '2': 'Ambulatory, capable of self-care, up >50% of waking hours', '3': 'Capable of limited self-care, confined to bed/chair >50%', '4': 'Completely disabled, no self-care', '5': 'Dead'}}, 'Karnofsky': {'name': 'Karnofsky Performance Status', 'categories': ['100', '90', '80', '70', '60', '50', '40', '30', '20', '10', '0'], 'conversion_to_ecog': {'100': '0', '90': '0', '80': '1', '70': '1', '60': '2', '50': '2', '40': '3', '30': '3', '20': '4', '10': '4', '0': '5'}}, 'Lansky': {'name': 'Lansky Play-Performance Scale (pediatric)', 'categories': ['100', '90', '80', '70', '60', '50', '40', '30', '20', '10', '0']}, 'ASA': {'name': 'ASA Physical Status Classification', 'categories': ['I', 'II', 'III', 'IV', 'V', 'VI'], 'definitions': {'I': 'Normal healthy patient', 'II': 'Mild systemic disease', 'III': 'Severe systemic disease', 'IV': 'Severe systemic disease, constant threat to life', 'V': 'Moribund, not expected to survive without operation', 'VI': 'Brain-dead organ donor'}}}\n",
      "cached_at": "2026-01-12T17:49:31.212334"
    },
    "disease_baseline_dlbcl": {
      "tools_called": [
        "get_demographics_baseline_specs",
        "get_baseline_covariates",
        "get_baseline_covariates",
        "get_population_definitions",
        "get_lymphoma_tables"
      ],
      "content": "I'll help you generate the Baseline Characteristics section for a DLBCL study. Let me first call the relevant tools to get the appropriate specifications.\n[TOOL:get_demographics_baseline_specs]\nError: attempted relative import with no known parent package\nLet me try a different approach to get the baseline characteristics specifications:\n[TOOL:get_baseline_covariates]\nError: attempted relative import with no known parent package\nLet me try getting the lymphoma-specific baseline specifications:\n[TOOL:get_baseline_covariates]\nError: attempted relative import with no known parent package\nLet me try getting general population definitions and then lymphoma tables:\n[TOOL:get_population_definitions]\n{'itt': {'name': 'Intent-to-Treat (ITT) Population', 'definition': 'All randomized subjects, analyzed according to randomized treatment assignment regardless of actual treatment received.', 'use_for': ['Primary efficacy analysis', 'Regulatory submission'], 'source': 'ICH E9'}, 'mitt': {'name': 'Modified Intent-to-Treat (mITT) Population', 'definition': 'All randomized subjects who received at least one dose of study treatment and had at least one post-baseline efficacy assessment.', 'use_for': ['Supportive efficacy analysis'], 'exclusions': ['No study drug received', 'No post-baseline assessment']}, 'safety': {'name': 'Safety Population', 'definition': 'All subjects who received at least one dose (or partial dose) of study treatment, analyzed according to treatment actually received.', 'use_for': ['All safety analyses', 'AE summaries', 'Laboratory analyses']}, 'per_protocol': {'name': 'Per-Protocol (PP) Population', 'definition': 'All subjects in the ITT population who completed the study without major protocol deviations that could affect efficacy assessment.', 'use_for': ['Supportive/sensitivity efficacy analysis'], 'exclusions': ['Major protocol deviations', 'Inadequate treatment exposure', 'Wrong diagnosis']}, 'evaluable': {'name': 'Evaluable Population', 'definition': 'All subjects who received study treatment and had adequate baseline and post-baseline tumor assessments for response evaluation.', 'use_for': ['Response rate analyses (ORR, CR, PR)']}, 'pharmacokinetic': {'name': 'Pharmacokinetic (PK) Population', 'definition': 'All subjects who received study treatment and had at least one evaluable PK sample.', 'use_for': ['PK analyses', 'Exposure-response analyses']}, 'dlt_evaluable': {'name': 'DLT-Evaluable Population', 'definition': 'All subjects who received the full planned dose during the DLT evaluation period or experienced a DLT.', 'use_for': ['Phase 1 dose-escalation', 'MTD determination']}}\n\n[TOOL:get_lymphoma_tables]\n{'baseline_tables': {'14.1.3_LYM': {'title': 'Baseline Disease Characteristics - Lymphoma', 'population': 'Safety Analysis Set', 'columns': ['Parameter', 'Statistic', 'Treated Subjects (N=XXX)'], 'rows': ['Ann Arbor Stage, n (%)|Stage I|xxx (xx.x)', '|Stage II|xxx (xx.x)', '|Stage III|xxx (xx.x)', '|Stage IV|xxx (xx.x)', 'B Symptoms Present, n (%)|Yes|xxx (xx.x)', '|No|xxx (xx.x)', 'Bulky Disease (\u22657 cm), n (%)|Yes|xxx (xx.x)', '|No|xxx (xx.x)', 'Extranodal Sites, n (%)|0|xxx (xx.x)', '|1|xxx (xx.x)', '|\u22652|xxx (xx.x)', 'Bone Marrow Involvement, n (%)|Yes|xxx (xx.x)', '|No|xxx (xx.x)', 'LDH > ULN, n (%)|Yes|xxx (xx.x)', '|No|xxx (xx.x)'], 'notes': 'Ann Arbor staging per Lugano Classification {Cheson 2014}', 'not_applicable': ['M1a/M1b/M1c staging', 'BRAF mutation', 'TNM staging']}, '14.1.4_LYM': {'title': 'Prognostic Index Scores - Lymphoma', 'population': 'Safety Analysis Set', 'columns': ['Parameter', 'Statistic', 'Treated Subjects (N=XXX)'], 'rows': ['FLIPI Score, n (%)|Low Risk (0-1)|xxx (xx.x)', '|Intermediate Risk (2)|xxx (xx.x)', '|High Risk (\u22653)|xxx (xx.x)', 'FLIPI-2 Score, n (%)|Low Risk (0)|xxx (xx.x)', '|Intermediate Risk (1-2)|xxx (xx.x)', '|High Risk (\u22653)|xxx (xx.x)', 'IPI Score (if applicable), n (%)|Low (0-1)|xxx (xx.x)', '|Low-Intermediate (2)|xxx (xx.x)', '|High-Intermediate (3)|xxx (xx.x)', '|High (4-5)|xxx (xx.x)'], 'notes': 'FLIPI = Follicular Lymphoma International Prognostic Index'}}, 'efficacy_tables': {'14.2.1_LYM': {'title': 'Best Overall Response per Lugano Classification', 'population': 'Inferential Analysis Set', 'columns': ['Response Category', 'n', '% (95% CI)'], 'rows': ['Objective Response Rate (CR+PR)|xxx|xx.x (xx.x, xx.x)', '  Complete Response (CR)|xxx|xx.x (xx.x, xx.x)', '    Complete Metabolic Response|xxx|xx.x', '  Partial Response (PR)|xxx|xx.x (xx.x, xx.x)', '    Partial Metabolic Response|xxx|xx.x', 'Stable Disease (SD)|xxx|xx.x', '  No Metabolic Response|xxx|xx.x', 'Progressive Disease (PD)|xxx|xx.x', '  Progressive Metabolic\n",
      "cached_at": "2026-01-12T17:49:47.435375"
    },
    "disease_baseline_follicular": {
      "tools_called": [
        "get_demographics_baseline_specs",
        "get_baseline_covariates",
        "get_lymphoma_tables",
        "get_response_criteria",
        "get_prognostic_scores"
      ],
      "content": "I'll help you generate the Baseline Characteristics section for a Follicular Lymphoma study. Let me first call the relevant tools to get the appropriate specifications.\n[TOOL:get_demographics_baseline_specs]\nError: attempted relative import with no known parent package\n\n[TOOL:get_baseline_covariates]\nError: attempted relative import with no known parent package\n\n[TOOL:get_lymphoma_tables]\n{'baseline_tables': {'14.1.3_LYM': {'title': 'Baseline Disease Characteristics - Lymphoma', 'population': 'Safety Analysis Set', 'columns': ['Parameter', 'Statistic', 'Treated Subjects (N=XXX)'], 'rows': ['Ann Arbor Stage, n (%)|Stage I|xxx (xx.x)', '|Stage II|xxx (xx.x)', '|Stage III|xxx (xx.x)', '|Stage IV|xxx (xx.x)', 'B Symptoms Present, n (%)|Yes|xxx (xx.x)', '|No|xxx (xx.x)', 'Bulky Disease (\u22657 cm), n (%)|Yes|xxx (xx.x)', '|No|xxx (xx.x)', 'Extranodal Sites, n (%)|0|xxx (xx.x)', '|1|xxx (xx.x)', '|\u22652|xxx (xx.x)', 'Bone Marrow Involvement, n (%)|Yes|xxx (xx.x)', '|No|xxx (xx.x)', 'LDH > ULN, n (%)|Yes|xxx (xx.x)', '|No|xxx (xx.x)'], 'notes': 'Ann Arbor staging per Lugano Classification {Cheson 2014}', 'not_applicable': ['M1a/M1b/M1c staging', 'BRAF mutation', 'TNM staging']}, '14.1.4_LYM': {'title': 'Prognostic Index Scores - Lymphoma', 'population': 'Safety Analysis Set', 'columns': ['Parameter', 'Statistic', 'Treated Subjects (N=XXX)'], 'rows': ['FLIPI Score, n (%)|Low Risk (0-1)|xxx (xx.x)', '|Intermediate Risk (2)|xxx (xx.x)', '|High Risk (\u22653)|xxx (xx.x)', 'FLIPI-2 Score, n (%)|Low Risk (0)|xxx (xx.x)', '|Intermediate Risk (1-2)|xxx (xx.x)', '|High Risk (\u22653)|xxx (xx.x)', 'IPI Score (if applicable), n (%)|Low (0-1)|xxx (xx.x)', '|Low-Intermediate (2)|xxx (xx.x)', '|High-Intermediate (3)|xxx (xx.x)', '|High (4-5)|xxx (xx.x)'], 'notes': 'FLIPI = Follicular Lymphoma International Prognostic Index'}}, 'efficacy_tables': {'14.2.1_LYM': {'title': 'Best Overall Response per Lugano Classification', 'population': 'Inferential Analysis Set', 'columns': ['Response Category', 'n', '% (95% CI)'], 'rows': ['Objective Response Rate (CR+PR)|xxx|xx.x (xx.x, xx.x)', '  Complete Response (CR)|xxx|xx.x (xx.x, xx.x)', '    Complete Metabolic Response|xxx|xx.x', '  Partial Response (PR)|xxx|xx.x (xx.x, xx.x)', '    Partial Metabolic Response|xxx|xx.x', 'Stable Disease (SD)|xxx|xx.x', '  No Metabolic Response|xxx|xx.x', 'Progressive Disease (PD)|xxx|xx.x', '  Progressive Metabolic\n\n[TOOL:get_response_criteria]\n{'name': 'Lugano Classification', 'version': '2014', 'indication': 'Hodgkin and Non-Hodgkin Lymphoma', 'reference': 'Cheson et al. J Clin Oncol 2014', 'imaging_requirements': {'fdg_avid_lymphomas': {'modality': 'PET-CT (FDG-PET)', 'timing': 'Interim (after 2-4 cycles) and End of Treatment', 'uptake_time': '60 minutes post FDG injection', 'reconstruction': 'Ordered subsets expectation maximization (OSEM)'}, 'non_fdg_avid_lymphomas': {'modality': 'CT alone', 'contrast': 'IV contrast-enhanced', 'slice_thickness': '5mm'}}, 'measurable_disease': {'nodal_disease': {'definition': 'Node/nodal mass >15mm in longest diameter (LDi)', 'measurement': 'CT: Long axis for nodal, short axis for extranodal', 'up_to_six_target_nodes': True}, 'extranodal_disease': {'definition': 'Lesion >10mm in longest diameter', 'sites': ['Liver', 'Spleen', 'Bone', 'Lung', 'Skin', 'GI tract', 'CNS']}, 'splenic_involvement': {'definition': 'Splenomegaly >13cm in craniocaudal length OR focal lesions'}}, 'deauville_5_point_scale': {'description': '5-Point Scale (5-PS) for PET interpretation', 'scores': {'1': 'No uptake above background', '2': 'Uptake \u2264 mediastinum', '3': 'Uptake > mediastinum but \u2264 liver', '4': 'Uptake moderately higher than liver', '5': 'Uptake markedly higher than liver and/or new lesions'}, 'response_threshold': {'interim': 'Score 1-3 considered negative (adequate response)', 'end_of_treatment': 'Score 1-3 considered CMR'}}, 'response_categories': {'CMR': {'name': 'Complete Metabolic Response (FDG-avid) / Complete Response (non-FDG-avid)', 'pet_criteria': 'Deauville score 1, 2, or 3 (no metabolically active disease)', 'ct_criteria': ['Target nodes/masses regressed to \u22641.5cm in LDi', 'No extranodal sites of disease', 'Bone marrow: No FDG-avid disease in marrow']}, 'PMR': {'name': 'Partial Metabolic Response / Partial Response', 'pet_criteria': 'Deauville score 4 or 5 with reduced uptake from baseline', 'ct_criteria': ['\u226550% decrease in SPD of up to 6 measurable nodes', 'No increase in\n\n[TOOL:get_prognostic_scores]\n{'IMDC': {'name': 'International Metastatic RCC Database Consortium', 'indication': 'Metastatic RCC', 'factors': ['Karnofsky PS <80%', 'Time from diagnosis to treatment <1 year', 'Hemoglobin < LLN', 'Corrected calcium > ULN', 'Neutrophils > ULN', 'Platelets > ULN'], 'risk_groups': {'Favorable': '0 factors', 'Intermediate': '1-2 factors', 'Poor': '3-6 factors'}}, 'IPI': {'name': 'International Prognostic Index', 'indication': 'DLBCL', 'factors': ['Age >60', 'Stage III/IV', 'Elevated LDH', 'ECOG PS \u22652', 'Extranodal sites >1'], 'risk_groups': {'Low': '0-1', 'Low-intermediate': '2', 'High-intermediate': '3', 'High': '4-5'}}}\n",
      "cached_at": "2026-01-12T17:49:59.557054"
    },
    "disease_baseline_mcl": {
      "tools_called": [
        "get_demographics_baseline_specs",
        "get_baseline_covariates",
        "get_lymphoma_tables",
        "get_population_definitions",
        "get_study_definitions"
      ],
      "content": "I'll call the relevant tools to get the specifications for the Baseline Characteristics section for a Mantle Cell Lymphoma study.\n[TOOL:get_demographics_baseline_specs]\nError: attempted relative import with no known parent package\nLet me try getting the specific baseline covariates for lymphoma and MCL:\n[TOOL:get_baseline_covariates]\nError: attempted relative import with no known parent package\nLet me try getting lymphoma-specific table templates that would include baseline characteristics:\n[TOOL:get_lymphoma_tables]\n{'baseline_tables': {'14.1.3_LYM': {'title': 'Baseline Disease Characteristics - Lymphoma', 'population': 'Safety Analysis Set', 'columns': ['Parameter', 'Statistic', 'Treated Subjects (N=XXX)'], 'rows': ['Ann Arbor Stage, n (%)|Stage I|xxx (xx.x)', '|Stage II|xxx (xx.x)', '|Stage III|xxx (xx.x)', '|Stage IV|xxx (xx.x)', 'B Symptoms Present, n (%)|Yes|xxx (xx.x)', '|No|xxx (xx.x)', 'Bulky Disease (\u22657 cm), n (%)|Yes|xxx (xx.x)', '|No|xxx (xx.x)', 'Extranodal Sites, n (%)|0|xxx (xx.x)', '|1|xxx (xx.x)', '|\u22652|xxx (xx.x)', 'Bone Marrow Involvement, n (%)|Yes|xxx (xx.x)', '|No|xxx (xx.x)', 'LDH > ULN, n (%)|Yes|xxx (xx.x)', '|No|xxx (xx.x)'], 'notes': 'Ann Arbor staging per Lugano Classification {Cheson 2014}', 'not_applicable': ['M1a/M1b/M1c staging', 'BRAF mutation', 'TNM staging']}, '14.1.4_LYM': {'title': 'Prognostic Index Scores - Lymphoma', 'population': 'Safety Analysis Set', 'columns': ['Parameter', 'Statistic', 'Treated Subjects (N=XXX)'], 'rows': ['FLIPI Score, n (%)|Low Risk (0-1)|xxx (xx.x)', '|Intermediate Risk (2)|xxx (xx.x)', '|High Risk (\u22653)|xxx (xx.x)', 'FLIPI-2 Score, n (%)|Low Risk (0)|xxx (xx.x)', '|Intermediate Risk (1-2)|xxx (xx.x)', '|High Risk (\u22653)|xxx (xx.x)', 'IPI Score (if applicable), n (%)|Low (0-1)|xxx (xx.x)', '|Low-Intermediate (2)|xxx (xx.x)', '|High-Intermediate (3)|xxx (xx.x)', '|High (4-5)|xxx (xx.x)'], 'notes': 'FLIPI = Follicular Lymphoma International Prognostic Index'}}, 'efficacy_tables': {'14.2.1_LYM': {'title': 'Best Overall Response per Lugano Classification', 'population': 'Inferential Analysis Set', 'columns': ['Response Category', 'n', '% (95% CI)'], 'rows': ['Objective Response Rate (CR+PR)|xxx|xx.x (xx.x, xx.x)', '  Complete Response (CR)|xxx|xx.x (xx.x, xx.x)', '    Complete Metabolic Response|xxx|xx.x', '  Partial Response (PR)|xxx|xx.x (xx.x, xx.x)', '    Partial Metabolic Response|xxx|xx.x', 'Stable Disease (SD)|xxx|xx.x', '  No Metabolic Response|xxx|xx.x', 'Progressive Disease (PD)|xxx|xx.x', '  Progressive Metabolic\nNow let me get the general population definitions and study definitions:\n[TOOL:get_population_definitions]\n{'itt': {'name': 'Intent-to-Treat (ITT) Population', 'definition': 'All randomized subjects, analyzed according to randomized treatment assignment regardless of actual treatment received.', 'use_for': ['Primary efficacy analysis', 'Regulatory submission'], 'source': 'ICH E9'}, 'mitt': {'name': 'Modified Intent-to-Treat (mITT) Population', 'definition': 'All randomized subjects who received at least one dose of study treatment and had at least one post-baseline efficacy assessment.', 'use_for': ['Supportive efficacy analysis'], 'exclusions': ['No study drug received', 'No post-baseline assessment']}, 'safety': {'name': 'Safety Population', 'definition': 'All subjects who received at least one dose (or partial dose) of study treatment, analyzed according to treatment actually received.', 'use_for': ['All safety analyses', 'AE summaries', 'Laboratory analyses']}, 'per_protocol': {'name': 'Per-Protocol (PP) Population', 'definition': 'All subjects in the ITT population who completed the study without major protocol deviations that could affect efficacy assessment.', 'use_for': ['Supportive/sensitivity efficacy analysis'], 'exclusions': ['Major protocol deviations', 'Inadequate treatment exposure', 'Wrong diagnosis']}, 'evaluable': {'name': 'Evaluable Population', 'definition': 'All subjects who received study treatment and had adequate baseline and post-baseline tumor assessments for response evaluation.', 'use_for': ['Response rate analyses (ORR, CR, PR)']}, 'pharmacokinetic': {'name': 'Pharmacokinetic (PK) Population', 'definition': 'All subjects who received study treatment and had at least one evaluable PK sample.', 'use_for': ['PK analyses', 'Exposure-response analyses']}, 'dlt_evaluable': {'name': 'DLT-Evaluable Population', 'definition': 'All subjects who received the full planned dose during the DLT evaluation period or experienced a DLT.', 'use_for': ['Phase 1 dose-escalation', 'MTD determination']}}\n\n[TOOL:get_study_definitions]\nError: attempted relative import with no known parent package\n",
      "cached_at": "2026-01-12T17:50:13.489280"
    },
    "disease_baseline_hodgkin": {
      "tools_called": [
        "get_demographics_baseline_specs",
        "get_baseline_covariates",
        "get_lymphoma_tables",
        "get_performance_status_scales",
        "get_prognostic_scores"
      ],
      "content": "I'll help you generate the Baseline Characteristics section. Let me first call the appropriate tools to get the relevant specifications for Hodgkin Lymphoma.\n[TOOL:get_demographics_baseline_specs]\nError: attempted relative import with no known parent package\n\n[TOOL:get_baseline_covariates]\nError: attempted relative import with no known parent package\n\n[TOOL:get_lymphoma_tables]\n{'baseline_tables': {'14.1.3_LYM': {'title': 'Baseline Disease Characteristics - Lymphoma', 'population': 'Safety Analysis Set', 'columns': ['Parameter', 'Statistic', 'Treated Subjects (N=XXX)'], 'rows': ['Ann Arbor Stage, n (%)|Stage I|xxx (xx.x)', '|Stage II|xxx (xx.x)', '|Stage III|xxx (xx.x)', '|Stage IV|xxx (xx.x)', 'B Symptoms Present, n (%)|Yes|xxx (xx.x)', '|No|xxx (xx.x)', 'Bulky Disease (\u22657 cm), n (%)|Yes|xxx (xx.x)', '|No|xxx (xx.x)', 'Extranodal Sites, n (%)|0|xxx (xx.x)', '|1|xxx (xx.x)', '|\u22652|xxx (xx.x)', 'Bone Marrow Involvement, n (%)|Yes|xxx (xx.x)', '|No|xxx (xx.x)', 'LDH > ULN, n (%)|Yes|xxx (xx.x)', '|No|xxx (xx.x)'], 'notes': 'Ann Arbor staging per Lugano Classification {Cheson 2014}', 'not_applicable': ['M1a/M1b/M1c staging', 'BRAF mutation', 'TNM staging']}, '14.1.4_LYM': {'title': 'Prognostic Index Scores - Lymphoma', 'population': 'Safety Analysis Set', 'columns': ['Parameter', 'Statistic', 'Treated Subjects (N=XXX)'], 'rows': ['FLIPI Score, n (%)|Low Risk (0-1)|xxx (xx.x)', '|Intermediate Risk (2)|xxx (xx.x)', '|High Risk (\u22653)|xxx (xx.x)', 'FLIPI-2 Score, n (%)|Low Risk (0)|xxx (xx.x)', '|Intermediate Risk (1-2)|xxx (xx.x)', '|High Risk (\u22653)|xxx (xx.x)', 'IPI Score (if applicable), n (%)|Low (0-1)|xxx (xx.x)', '|Low-Intermediate (2)|xxx (xx.x)', '|High-Intermediate (3)|xxx (xx.x)', '|High (4-5)|xxx (xx.x)'], 'notes': 'FLIPI = Follicular Lymphoma International Prognostic Index'}}, 'efficacy_tables': {'14.2.1_LYM': {'title': 'Best Overall Response per Lugano Classification', 'population': 'Inferential Analysis Set', 'columns': ['Response Category', 'n', '% (95% CI)'], 'rows': ['Objective Response Rate (CR+PR)|xxx|xx.x (xx.x, xx.x)', '  Complete Response (CR)|xxx|xx.x (xx.x, xx.x)', '    Complete Metabolic Response|xxx|xx.x', '  Partial Response (PR)|xxx|xx.x (xx.x, xx.x)', '    Partial Metabolic Response|xxx|xx.x', 'Stable Disease (SD)|xxx|xx.x', '  No Metabolic Response|xxx|xx.x', 'Progressive Disease (PD)|xxx|xx.x', '  Progressive Metabolic\n\n[TOOL:get_performance_status_scales]\n{'ECOG': {'name': 'ECOG Performance Status', 'categories': ['0', '1', '2', '3', '4', '5'], 'definitions': {'0': 'Fully active, no restrictions', '1': 'Restricted in strenuous activity, ambulatory', '2': 'Ambulatory, capable of self-care, up >50% of waking hours', '3': 'Capable of limited self-care, confined to bed/chair >50%', '4': 'Completely disabled, no self-care', '5': 'Dead'}}, 'Karnofsky': {'name': 'Karnofsky Performance Status', 'categories': ['100', '90', '80', '70', '60', '50', '40', '30', '20', '10', '0'], 'conversion_to_ecog': {'100': '0', '90': '0', '80': '1', '70': '1', '60': '2', '50': '2', '40': '3', '30': '3', '20': '4', '10': '4', '0': '5'}}, 'Lansky': {'name': 'Lansky Play-Performance Scale (pediatric)', 'categories': ['100', '90', '80', '70', '60', '50', '40', '30', '20', '10', '0']}, 'ASA': {'name': 'ASA Physical Status Classification', 'categories': ['I', 'II', 'III', 'IV', 'V', 'VI'], 'definitions': {'I': 'Normal healthy patient', 'II': 'Mild systemic disease', 'III': 'Severe systemic disease', 'IV': 'Severe systemic disease, constant threat to life', 'V': 'Moribund, not expected to survive without operation', 'VI': 'Brain-dead organ donor'}}}\n\n[TOOL:get_prognostic_scores]\n{'IMDC': {'name': 'International Metastatic RCC Database Consortium', 'indication': 'Metastatic RCC', 'factors': ['Karnofsky PS <80%', 'Time from diagnosis to treatment <1 year', 'Hemoglobin < LLN', 'Corrected calcium > ULN', 'Neutrophils > ULN', 'Platelets > ULN'], 'risk_groups': {'Favorable': '0 factors', 'Intermediate': '1-2 factors', 'Poor': '3-6 factors'}}, 'IPI': {'name': 'International Prognostic Index', 'indication': 'DLBCL', 'factors': ['Age >60', 'Stage III/IV', 'Elevated LDH', 'ECOG PS \u22652', 'Extranodal sites >1'], 'risk_groups': {'Low': '0-1', 'Low-intermediate': '2', 'High-intermediate': '3', 'High': '4-5'}}}\n",
      "cached_at": "2026-01-12T17:50:22.809207"
    },
    "disease_baseline_myeloma": {
      "tools_called": [
        "get_demographics_baseline_specs",
        "get_baseline_covariates",
        "get_population_definitions",
        "get_statistical_method",
        "get_study_definitions"
      ],
      "content": "I'll help you generate the Baseline Characteristics section for a Multiple Myeloma study. Let me first retrieve the relevant specifications from the knowledge base.\n[TOOL:get_demographics_baseline_specs]\nError: attempted relative import with no known parent package\nLet me try getting the baseline covariates specific to myeloma:\n[TOOL:get_baseline_covariates]\nError: attempted relative import with no known parent package\nLet me try getting general population definitions and statistical methods:\n[TOOL:get_population_definitions]\n{'itt': {'name': 'Intent-to-Treat (ITT) Population', 'definition': 'All randomized subjects, analyzed according to randomized treatment assignment regardless of actual treatment received.', 'use_for': ['Primary efficacy analysis', 'Regulatory submission'], 'source': 'ICH E9'}, 'mitt': {'name': 'Modified Intent-to-Treat (mITT) Population', 'definition': 'All randomized subjects who received at least one dose of study treatment and had at least one post-baseline efficacy assessment.', 'use_for': ['Supportive efficacy analysis'], 'exclusions': ['No study drug received', 'No post-baseline assessment']}, 'safety': {'name': 'Safety Population', 'definition': 'All subjects who received at least one dose (or partial dose) of study treatment, analyzed according to treatment actually received.', 'use_for': ['All safety analyses', 'AE summaries', 'Laboratory analyses']}, 'per_protocol': {'name': 'Per-Protocol (PP) Population', 'definition': 'All subjects in the ITT population who completed the study without major protocol deviations that could affect efficacy assessment.', 'use_for': ['Supportive/sensitivity efficacy analysis'], 'exclusions': ['Major protocol deviations', 'Inadequate treatment exposure', 'Wrong diagnosis']}, 'evaluable': {'name': 'Evaluable Population', 'definition': 'All subjects who received study treatment and had adequate baseline and post-baseline tumor assessments for response evaluation.', 'use_for': ['Response rate analyses (ORR, CR, PR)']}, 'pharmacokinetic': {'name': 'Pharmacokinetic (PK) Population', 'definition': 'All subjects who received study treatment and had at least one evaluable PK sample.', 'use_for': ['PK analyses', 'Exposure-response analyses']}, 'dlt_evaluable': {'name': 'DLT-Evaluable Population', 'definition': 'All subjects who received the full planned dose during the DLT evaluation period or experienced a DLT.', 'use_for': ['Phase 1 dose-escalation', 'MTD determination']}}\n\n[TOOL:get_statistical_method]\n{}\nLet me try getting study definitions:\n[TOOL:get_study_definitions]\nError: attempted relative import with no known parent package\n",
      "cached_at": "2026-01-12T17:50:36.619036"
    },
    "disease_baseline_aml": {
      "tools_called": [
        "get_demographics_baseline_specs",
        "get_baseline_covariates",
        "get_baseline_covariates",
        "get_comprehensive_sap_elements",
        "get_population_definitions"
      ],
      "content": "I'll help you generate the Baseline Characteristics section for an AML (Acute Myeloid Leukemia) study. Let me first retrieve the relevant specifications from the knowledge base.\n[TOOL:get_demographics_baseline_specs]\nError: attempted relative import with no known parent package\nLet me try a different approach to get the baseline characteristics specifications:\n[TOOL:get_baseline_covariates]\nError: attempted relative import with no known parent package\nLet me try to get the general baseline characteristics and then AML-specific specifications:\n[TOOL:get_baseline_covariates]\nError: attempted relative import with no known parent package\nLet me try getting the comprehensive SAP elements for hematologic malignancies:\n[TOOL:get_comprehensive_sap_elements]\nError: attempted relative import with no known parent package\nLet me try getting the general population definitions and stratification specifications:\n[TOOL:get_population_definitions]\n{'itt': {'name': 'Intent-to-Treat (ITT) Population', 'definition': 'All randomized subjects, analyzed according to randomized treatment assignment regardless of actual treatment received.', 'use_for': ['Primary efficacy analysis', 'Regulatory submission'], 'source': 'ICH E9'}, 'mitt': {'name': 'Modified Intent-to-Treat (mITT) Population', 'definition': 'All randomized subjects who received at least one dose of study treatment and had at least one post-baseline efficacy assessment.', 'use_for': ['Supportive efficacy analysis'], 'exclusions': ['No study drug received', 'No post-baseline assessment']}, 'safety': {'name': 'Safety Population', 'definition': 'All subjects who received at least one dose (or partial dose) of study treatment, analyzed according to treatment actually received.', 'use_for': ['All safety analyses', 'AE summaries', 'Laboratory analyses']}, 'per_protocol': {'name': 'Per-Protocol (PP) Population', 'definition': 'All subjects in the ITT population who completed the study without major protocol deviations that could affect efficacy assessment.', 'use_for': ['Supportive/sensitivity efficacy analysis'], 'exclusions': ['Major protocol deviations', 'Inadequate treatment exposure', 'Wrong diagnosis']}, 'evaluable': {'name': 'Evaluable Population', 'definition': 'All subjects who received study treatment and had adequate baseline and post-baseline tumor assessments for response evaluation.', 'use_for': ['Response rate analyses (ORR, CR, PR)']}, 'pharmacokinetic': {'name': 'Pharmacokinetic (PK) Population', 'definition': 'All subjects who received study treatment and had at least one evaluable PK sample.', 'use_for': ['PK analyses', 'Exposure-response analyses']}, 'dlt_evaluable': {'name': 'DLT-Evaluable Population', 'definition': 'All subjects who received the full planned dose during the DLT evaluation period or experienced a DLT.', 'use_for': ['Phase 1 dose-escalation', 'MTD determination']}}\n",
      "cached_at": "2026-01-12T17:50:50.794364"
    },
    "disease_baseline_all": {
      "tools_called": [
        "get_demographics_baseline_specs",
        "get_baseline_covariates",
        "get_population_definitions",
        "get_study_definitions",
        "get_performance_status_scales"
      ],
      "content": "I'll help you generate the Baseline Characteristics section for an ALL (Acute Lymphoblastic Leukemia) study. Let me first retrieve the relevant specifications from the knowledge base.\n[TOOL:get_demographics_baseline_specs]\nError: attempted relative import with no known parent package\nLet me try a different approach to get the baseline characteristics specifications:\n[TOOL:get_baseline_covariates]\nError: attempted relative import with no known parent package\n\n[TOOL:get_population_definitions]\n{'itt': {'name': 'Intent-to-Treat (ITT) Population', 'definition': 'All randomized subjects, analyzed according to randomized treatment assignment regardless of actual treatment received.', 'use_for': ['Primary efficacy analysis', 'Regulatory submission'], 'source': 'ICH E9'}, 'mitt': {'name': 'Modified Intent-to-Treat (mITT) Population', 'definition': 'All randomized subjects who received at least one dose of study treatment and had at least one post-baseline efficacy assessment.', 'use_for': ['Supportive efficacy analysis'], 'exclusions': ['No study drug received', 'No post-baseline assessment']}, 'safety': {'name': 'Safety Population', 'definition': 'All subjects who received at least one dose (or partial dose) of study treatment, analyzed according to treatment actually received.', 'use_for': ['All safety analyses', 'AE summaries', 'Laboratory analyses']}, 'per_protocol': {'name': 'Per-Protocol (PP) Population', 'definition': 'All subjects in the ITT population who completed the study without major protocol deviations that could affect efficacy assessment.', 'use_for': ['Supportive/sensitivity efficacy analysis'], 'exclusions': ['Major protocol deviations', 'Inadequate treatment exposure', 'Wrong diagnosis']}, 'evaluable': {'name': 'Evaluable Population', 'definition': 'All subjects who received study treatment and had adequate baseline and post-baseline tumor assessments for response evaluation.', 'use_for': ['Response rate analyses (ORR, CR, PR)']}, 'pharmacokinetic': {'name': 'Pharmacokinetic (PK) Population', 'definition': 'All subjects who received study treatment and had at least one evaluable PK sample.', 'use_for': ['PK analyses', 'Exposure-response analyses']}, 'dlt_evaluable': {'name': 'DLT-Evaluable Population', 'definition': 'All subjects who received the full planned dose during the DLT evaluation period or experienced a DLT.', 'use_for': ['Phase 1 dose-escalation', 'MTD determination']}}\n\n[TOOL:get_study_definitions]\nError: attempted relative import with no known parent package\n\n[TOOL:get_performance_status_scales]\n{'ECOG': {'name': 'ECOG Performance Status', 'categories': ['0', '1', '2', '3', '4', '5'], 'definitions': {'0': 'Fully active, no restrictions', '1': 'Restricted in strenuous activity, ambulatory', '2': 'Ambulatory, capable of self-care, up >50% of waking hours', '3': 'Capable of limited self-care, confined to bed/chair >50%', '4': 'Completely disabled, no self-care', '5': 'Dead'}}, 'Karnofsky': {'name': 'Karnofsky Performance Status', 'categories': ['100', '90', '80', '70', '60', '50', '40', '30', '20', '10', '0'], 'conversion_to_ecog': {'100': '0', '90': '0', '80': '1', '70': '1', '60': '2', '50': '2', '40': '3', '30': '3', '20': '4', '10': '4', '0': '5'}}, 'Lansky': {'name': 'Lansky Play-Performance Scale (pediatric)', 'categories': ['100', '90', '80', '70', '60', '50', '40', '30', '20', '10', '0']}, 'ASA': {'name': 'ASA Physical Status Classification', 'categories': ['I', 'II', 'III', 'IV', 'V', 'VI'], 'definitions': {'I': 'Normal healthy patient', 'II': 'Mild systemic disease', 'III': 'Severe systemic disease', 'IV': 'Severe systemic disease, constant threat to life', 'V': 'Moribund, not expected to survive without operation', 'VI': 'Brain-dead organ donor'}}}\n",
      "cached_at": "2026-01-12T17:51:02.174467"
    },
    "disease_baseline_cll": {
      "tools_called": [
        "get_demographics_baseline_specs",
        "get_baseline_covariates",
        "get_iwcll_criteria",
        "get_population_definitions",
        "get_performance_status_scales"
      ],
      "content": "I'll help you generate the Baseline Characteristics section for a CLL study. Let me first retrieve the relevant specifications from the knowledge base.\n[TOOL:get_demographics_baseline_specs]\nError: attempted relative import with no known parent package\nLet me try a different approach to get the baseline characteristics specifications:\n[TOOL:get_baseline_covariates]\nError: attempted relative import with no known parent package\nLet me try to get CLL-specific response criteria and general population definitions:\n[TOOL:get_iwcll_criteria]\n{'name': 'iwCLL', 'full_name': 'International Workshop on CLL Criteria', 'indication': 'Chronic Lymphocytic Leukemia', 'version': '2018', 'response_categories': {'CR': {'definition': 'Complete Remission', 'criteria': ['Lymphocytes <4 x 10^9/L', 'No lymphadenopathy (nodes <1.5 cm)', 'No hepatomegaly/splenomegaly', 'Neutrophils >1.5 x 10^9/L', 'Platelets >100 x 10^9/L', 'Hemoglobin >11 g/dL (untransfused)', '<30% lymphocytes in bone marrow']}, 'CRi': {'definition': 'CR with incomplete marrow recovery', 'criteria': ['CR criteria except persistent cytopenia due to drug toxicity']}, 'PR': {'definition': 'Partial Remission', 'criteria': ['\u226550% decrease in lymphocyte count', '\u226550% reduction in lymphadenopathy', '\u226550% reduction in liver/spleen enlargement', 'Plus one of: neutrophils >1.5, platelets >100, Hgb >11']}, 'PD': {'definition': 'Progressive Disease', 'criteria': ['\u226550% increase in lymphocytes', 'New lymphadenopathy or \u226550% increase', '\u226550% increase in liver/spleen', 'Richter transformation', 'New cytopenia due to CLL']}, 'uMRD': {'definition': 'Undetectable MRD', 'criteria': ['<1 CLL cell per 10,000 leukocytes (10^-4)']}}, 'endpoints': [{'name': 'ORR', 'definition': 'CR + CRi + PR rate'}, {'name': 'CR rate', 'definition': 'Complete remission rate'}, {'name': 'uMRD rate', 'definition': 'Undetectable MRD rate'}, {'name': 'PFS', 'definition': 'Progression-free survival'}, {'name': 'TTNT', 'definition': 'Time to next treatment'}, {'name': 'DOR', 'definition': 'Duration of response'}], 'baseline_variables': [{'name': 'Rai stage', 'categories': ['0', 'I', 'II', 'III', 'IV']}, {'name': 'Binet stage', 'categories': ['A', 'B', 'C']}, {'name': 'IGHV mutation status', 'categories': ['Mutated', 'Unmutated']}, {'name': 'Del(17p)', 'categories': ['Present', 'Absent']}, {'name': 'TP53 mutation', 'categories': ['Mutated', 'Wild-type']}, {'name': 'Del(11q)', 'categories': ['Present', 'Absent']}, {'name': 'Complex karyotype', 'categories': ['Yes', 'No']}, {'name': 'Beta-2 microglobu\n\n[TOOL:get_population_definitions]\n{'itt': {'name': 'Intent-to-Treat (ITT) Population', 'definition': 'All randomized subjects, analyzed according to randomized treatment assignment regardless of actual treatment received.', 'use_for': ['Primary efficacy analysis', 'Regulatory submission'], 'source': 'ICH E9'}, 'mitt': {'name': 'Modified Intent-to-Treat (mITT) Population', 'definition': 'All randomized subjects who received at least one dose of study treatment and had at least one post-baseline efficacy assessment.', 'use_for': ['Supportive efficacy analysis'], 'exclusions': ['No study drug received', 'No post-baseline assessment']}, 'safety': {'name': 'Safety Population', 'definition': 'All subjects who received at least one dose (or partial dose) of study treatment, analyzed according to treatment actually received.', 'use_for': ['All safety analyses', 'AE summaries', 'Laboratory analyses']}, 'per_protocol': {'name': 'Per-Protocol (PP) Population', 'definition': 'All subjects in the ITT population who completed the study without major protocol deviations that could affect efficacy assessment.', 'use_for': ['Supportive/sensitivity efficacy analysis'], 'exclusions': ['Major protocol deviations', 'Inadequate treatment exposure', 'Wrong diagnosis']}, 'evaluable': {'name': 'Evaluable Population', 'definition': 'All subjects who received study treatment and had adequate baseline and post-baseline tumor assessments for response evaluation.', 'use_for': ['Response rate analyses (ORR, CR, PR)']}, 'pharmacokinetic': {'name': 'Pharmacokinetic (PK) Population', 'definition': 'All subjects who received study treatment and had at least one evaluable PK sample.', 'use_for': ['PK analyses', 'Exposure-response analyses']}, 'dlt_evaluable': {'name': 'DLT-Evaluable Population', 'definition': 'All subjects who received the full planned dose during the DLT evaluation period or experienced a DLT.', 'use_for': ['Phase 1 dose-escalation', 'MTD determination']}}\n\n[TOOL:get_performance_status_scales]\n{'ECOG': {'name': 'ECOG Performance Status', 'categories': ['0', '1', '2', '3', '4', '5'], 'definitions': {'0': 'Fully active, no restrictions', '1': 'Restricted in strenuous activity, ambulatory', '2': 'Ambulatory, capable of self-care, up >50% of waking hours', '3': 'Capable of limited self-care, confined to bed/chair >50%', '4': 'Completely disabled, no self-care', '5': 'Dead'}}, 'Karnofsky': {'name': 'Karnofsky Performance Status', 'categories': ['100', '90', '80', '70', '60', '50', '40', '30', '20', '10', '0'], 'conversion_to_ecog': {'100': '0', '90': '0', '80': '1', '70': '1', '60': '2', '50': '2', '40': '3', '30': '3', '20': '4', '10': '4', '0': '5'}}, 'Lansky': {'name': 'Lansky Play-Performance Scale (pediatric)', 'categories': ['100', '90', '80', '70', '60', '50', '40', '30', '20', '10', '0']}, 'ASA': {'name': 'ASA Physical Status Classification', 'categories': ['I', 'II', 'III', 'IV', 'V', 'VI'], 'definitions': {'I': 'Normal healthy patient', 'II': 'Mild systemic disease', 'III': 'Severe systemic disease', 'IV': 'Severe systemic disease, constant threat to life', 'V': 'Moribund, not expected to survive without operation', 'VI': 'Brain-dead organ donor'}}}\n",
      "cached_at": "2026-01-12T17:51:15.862249"
    },
    "disease_baseline_cml": {
      "tools_called": [
        "get_demographics_baseline_specs",
        "get_baseline_covariates",
        "get_cml_criteria",
        "get_study_definitions",
        "get_population_definitions"
      ],
      "content": "I'll help you generate the Baseline Characteristics section for a CML (Chronic Myeloid Leukemia) study. Let me first retrieve the relevant specifications from the knowledge base.\n[TOOL:get_demographics_baseline_specs]\nError: attempted relative import with no known parent package\nLet me try getting the baseline covariates specifically for leukemia:\n[TOOL:get_baseline_covariates]\nError: attempted relative import with no known parent package\nLet me try getting CML-specific response criteria and general demographics specifications:\n[TOOL:get_cml_criteria]\n{'name': 'ELN CML', 'full_name': 'European LeukemiaNet CML Response Criteria', 'indication': 'Chronic Myeloid Leukemia', 'version': '2020', 'response_categories': {'CHR': {'definition': 'Complete Hematologic Response', 'criteria': ['WBC <10 x 10^9/L', 'Platelet count <450 x 10^9/L', 'No immature granulocytes', 'Basophils <5%', 'No palpable spleen']}, 'CCyR': {'definition': 'Complete Cytogenetic Response', 'criteria': ['0% Ph+ metaphases']}, 'PCyR': {'definition': 'Partial Cytogenetic Response', 'criteria': ['1-35% Ph+ metaphases']}, 'MMR': {'definition': 'Major Molecular Response', 'criteria': ['BCR-ABL1 \u22640.1% IS (\u22653-log reduction)']}, 'MR4': {'definition': 'Deep Molecular Response 4', 'criteria': ['BCR-ABL1 \u22640.01% IS (\u22654-log reduction)']}, 'MR4.5': {'definition': 'Deep Molecular Response 4.5', 'criteria': ['BCR-ABL1 \u22640.0032% IS (\u22654.5-log reduction)']}, 'MR5': {'definition': 'Deep Molecular Response 5', 'criteria': ['BCR-ABL1 \u22640.001% IS (\u22655-log reduction)']}}, 'milestones': {'3_months': {'optimal': 'BCR-ABL1 \u226410%', 'warning': '>10%', 'failure': '>10% if confirmed'}, '6_months': {'optimal': 'BCR-ABL1 \u22641%', 'warning': '1-10%', 'failure': '>10%'}, '12_months': {'optimal': 'BCR-ABL1 \u22640.1%', 'warning': '0.1-1%', 'failure': '>1%'}}, 'endpoints': [{'name': 'MMR rate at 12 months', 'definition': 'Proportion achieving MMR by 12 months'}, {'name': 'CCyR rate at 12 months', 'definition': 'Proportion achieving CCyR by 12 months'}, {'name': 'Time to MMR', 'definition': 'Time to major molecular response'}, {'name': 'EFS', 'definition': 'Event-free survival'}, {'name': 'PFS', 'definition': 'Progression-free survival'}, {'name': 'TFR rate', 'definition': 'Treatment-free remission rate'}], 'baseline_variables': [{'name': 'Sokal score', 'categories': ['Low', 'Intermediate', 'High']}, {'name': 'Hasford score', 'categories': ['Low', 'Intermediate', 'High']}, {'name': 'ELTS score', 'categories': ['Low', 'Intermediate', 'High']}, {'name': 'Disease phase', 'categories': ['Chronic phase', \nLet me also get study definitions and analysis population specifications:\n[TOOL:get_study_definitions]\nError: attempted relative import with no known parent package\n\n[TOOL:get_population_definitions]\n{'itt': {'name': 'Intent-to-Treat (ITT) Population', 'definition': 'All randomized subjects, analyzed according to randomized treatment assignment regardless of actual treatment received.', 'use_for': ['Primary efficacy analysis', 'Regulatory submission'], 'source': 'ICH E9'}, 'mitt': {'name': 'Modified Intent-to-Treat (mITT) Population', 'definition': 'All randomized subjects who received at least one dose of study treatment and had at least one post-baseline efficacy assessment.', 'use_for': ['Supportive efficacy analysis'], 'exclusions': ['No study drug received', 'No post-baseline assessment']}, 'safety': {'name': 'Safety Population', 'definition': 'All subjects who received at least one dose (or partial dose) of study treatment, analyzed according to treatment actually received.', 'use_for': ['All safety analyses', 'AE summaries', 'Laboratory analyses']}, 'per_protocol': {'name': 'Per-Protocol (PP) Population', 'definition': 'All subjects in the ITT population who completed the study without major protocol deviations that could affect efficacy assessment.', 'use_for': ['Supportive/sensitivity efficacy analysis'], 'exclusions': ['Major protocol deviations', 'Inadequate treatment exposure', 'Wrong diagnosis']}, 'evaluable': {'name': 'Evaluable Population', 'definition': 'All subjects who received study treatment and had adequate baseline and post-baseline tumor assessments for response evaluation.', 'use_for': ['Response rate analyses (ORR, CR, PR)']}, 'pharmacokinetic': {'name': 'Pharmacokinetic (PK) Population', 'definition': 'All subjects who received study treatment and had at least one evaluable PK sample.', 'use_for': ['PK analyses', 'Exposure-response analyses']}, 'dlt_evaluable': {'name': 'DLT-Evaluable Population', 'definition': 'All subjects who received the full planned dose during the DLT evaluation period or experienced a DLT.', 'use_for': ['Phase 1 dose-escalation', 'MTD determination']}}\n",
      "cached_at": "2026-01-12T17:51:30.639488"
    },
    "disease_baseline_mds": {
      "tools_called": [
        "get_demographics_baseline_specs",
        "get_baseline_covariates",
        "get_population_definitions",
        "get_study_definitions",
        "get_prognostic_scores"
      ],
      "content": "I'll help you generate the Baseline Characteristics section for an MDS (Myelodysplastic Syndromes) study. Let me first retrieve the relevant specifications from the knowledge base.\n[TOOL:get_demographics_baseline_specs]\nError: attempted relative import with no known parent package\n\n[TOOL:get_baseline_covariates]\nError: attempted relative import with no known parent package\n\n[TOOL:get_population_definitions]\n{'itt': {'name': 'Intent-to-Treat (ITT) Population', 'definition': 'All randomized subjects, analyzed according to randomized treatment assignment regardless of actual treatment received.', 'use_for': ['Primary efficacy analysis', 'Regulatory submission'], 'source': 'ICH E9'}, 'mitt': {'name': 'Modified Intent-to-Treat (mITT) Population', 'definition': 'All randomized subjects who received at least one dose of study treatment and had at least one post-baseline efficacy assessment.', 'use_for': ['Supportive efficacy analysis'], 'exclusions': ['No study drug received', 'No post-baseline assessment']}, 'safety': {'name': 'Safety Population', 'definition': 'All subjects who received at least one dose (or partial dose) of study treatment, analyzed according to treatment actually received.', 'use_for': ['All safety analyses', 'AE summaries', 'Laboratory analyses']}, 'per_protocol': {'name': 'Per-Protocol (PP) Population', 'definition': 'All subjects in the ITT population who completed the study without major protocol deviations that could affect efficacy assessment.', 'use_for': ['Supportive/sensitivity efficacy analysis'], 'exclusions': ['Major protocol deviations', 'Inadequate treatment exposure', 'Wrong diagnosis']}, 'evaluable': {'name': 'Evaluable Population', 'definition': 'All subjects who received study treatment and had adequate baseline and post-baseline tumor assessments for response evaluation.', 'use_for': ['Response rate analyses (ORR, CR, PR)']}, 'pharmacokinetic': {'name': 'Pharmacokinetic (PK) Population', 'definition': 'All subjects who received study treatment and had at least one evaluable PK sample.', 'use_for': ['PK analyses', 'Exposure-response analyses']}, 'dlt_evaluable': {'name': 'DLT-Evaluable Population', 'definition': 'All subjects who received the full planned dose during the DLT evaluation period or experienced a DLT.', 'use_for': ['Phase 1 dose-escalation', 'MTD determination']}}\n\n[TOOL:get_study_definitions]\nError: attempted relative import with no known parent package\n\n[TOOL:get_prognostic_scores]\n{'IMDC': {'name': 'International Metastatic RCC Database Consortium', 'indication': 'Metastatic RCC', 'factors': ['Karnofsky PS <80%', 'Time from diagnosis to treatment <1 year', 'Hemoglobin < LLN', 'Corrected calcium > ULN', 'Neutrophils > ULN', 'Platelets > ULN'], 'risk_groups': {'Favorable': '0 factors', 'Intermediate': '1-2 factors', 'Poor': '3-6 factors'}}, 'IPI': {'name': 'International Prognostic Index', 'indication': 'DLBCL', 'factors': ['Age >60', 'Stage III/IV', 'Elevated LDH', 'ECOG PS \u22652', 'Extranodal sites >1'], 'risk_groups': {'Low': '0-1', 'Low-intermediate': '2', 'High-intermediate': '3', 'High': '4-5'}}}\n",
      "cached_at": "2026-01-12T17:51:40.733782"
    }
  }
}