<?xml version="1.0" ?>
<ODM xmlns="http://www.cdisc.org/ns/odm/v1.3" xmlns:def="http://www.cdisc.org/ns/def/v2.1" xmlns:xlink="http://www.w3.org/1999/xlink" xmlns:arm="http://www.cdisc.org/ns/arm/v1.0" ODMVersion="1.3.2" FileOID="DEF.SDTM.001" FileType="Snapshot" CreationDateTime="2026-01-09T16:30:40.077299" Originator="SAP Generation System" SourceSystem="Clinical Trial SAP System" SourceSystemVersion="2.0" def:Context="Submission">
  <Study OID="ST.NCT03558139">
    <GlobalVariables>
      <StudyName>NCT03558139</StudyName>
      <StudyDescription>Phase 1b Trial of Hu5F9-G4</StudyDescription>
      <ProtocolName>NCT03558139</ProtocolName>
    </GlobalVariables>
    <MetaDataVersion OID="MDV.1.0.0" Name="Study NCT03558139, SDTM Data Definitions" Description="SDTM Domain and Variable Definitions" def:DefineVersion="2.1.0" def:StandardName="SDTMIG" def:StandardVersion="3.4">
      <def:Standards>
        <def:Standard OID="STD.1" Name="SDTMIG" Type="IG" Version="3.4" Status="Final"/>
        <def:Standard OID="STD.2" Name="SDTM Terminology" Type="CT" Version="2024-03-29" Status="Final"/>
      </def:Standards>
      <ItemGroupDef OID="IG.AE" Name="AE" Repeating="Yes" IsReferenceData="No" SASDatasetName="AE" Purpose="Tabulation" def:StandardOID="STD.1" def:Structure="One record per adverse event per subject" def:Class="Events">
        <Description>
          <TranslatedText xml:lang="en">Adverse Events domain contains data about untoward medical occurrences.</TranslatedText>
        </Description>
        <ItemRef ItemOID="IT.AE.STUDYID" OrderNumber="1" Mandatory="Yes" KeySequence="1"/>
        <ItemRef ItemOID="IT.AE.DOMAIN" OrderNumber="2" Mandatory="Yes" KeySequence="2"/>
        <ItemRef ItemOID="IT.AE.USUBJID" OrderNumber="3" Mandatory="Yes" KeySequence="3"/>
        <ItemRef ItemOID="IT.AE.AESEQ" OrderNumber="4" Mandatory="Yes" KeySequence="4"/>
        <ItemRef ItemOID="IT.AE.AETERM" OrderNumber="5" Mandatory="Yes"/>
        <ItemRef ItemOID="IT.AE.AEDECOD" OrderNumber="6" Mandatory="Yes"/>
        <ItemRef ItemOID="IT.AE.AEBODSYS" OrderNumber="7" Mandatory="No"/>
        <ItemRef ItemOID="IT.AE.AESOC" OrderNumber="8" Mandatory="No"/>
        <ItemRef ItemOID="IT.AE.AESER" OrderNumber="9" Mandatory="No"/>
        <ItemRef ItemOID="IT.AE.AEACN" OrderNumber="10" Mandatory="No"/>
        <ItemRef ItemOID="IT.AE.AEREL" OrderNumber="11" Mandatory="No"/>
        <ItemRef ItemOID="IT.AE.AEOUT" OrderNumber="12" Mandatory="No"/>
        <ItemRef ItemOID="IT.AE.AESTDTC" OrderNumber="13" Mandatory="No"/>
        <ItemRef ItemOID="IT.AE.AEENDTC" OrderNumber="14" Mandatory="No"/>
      </ItemGroupDef>
      <ItemGroupDef OID="IG.CE" Name="CE" Repeating="Yes" IsReferenceData="No" SASDatasetName="CE" Purpose="Tabulation" def:StandardOID="STD.1" def:Structure="One record per event per subject" def:Class="Events">
        <Description>
          <TranslatedText xml:lang="en">Clinical Events domain for disease-related events not captured in AE.</TranslatedText>
        </Description>
        <ItemRef ItemOID="IT.CE.STUDYID" OrderNumber="1" Mandatory="Yes" KeySequence="1"/>
        <ItemRef ItemOID="IT.CE.DOMAIN" OrderNumber="2" Mandatory="Yes" KeySequence="2"/>
        <ItemRef ItemOID="IT.CE.USUBJID" OrderNumber="3" Mandatory="Yes" KeySequence="3"/>
        <ItemRef ItemOID="IT.CE.CESEQ" OrderNumber="4" Mandatory="Yes" KeySequence="4"/>
        <ItemRef ItemOID="IT.CE.CETERM" OrderNumber="5" Mandatory="Yes"/>
        <ItemRef ItemOID="IT.CE.CEDECOD" OrderNumber="6" Mandatory="No"/>
        <ItemRef ItemOID="IT.CE.CESTDTC" OrderNumber="7" Mandatory="No"/>
        <ItemRef ItemOID="IT.CE.CEENDTC" OrderNumber="8" Mandatory="No"/>
        <ItemRef ItemOID="IT.CE.VISITNUM" OrderNumber="9" Mandatory="No"/>
        <ItemRef ItemOID="IT.CE.VISIT" OrderNumber="10" Mandatory="No"/>
      </ItemGroupDef>
      <ItemGroupDef OID="IG.CM" Name="CM" Repeating="Yes" IsReferenceData="No" SASDatasetName="CM" Purpose="Tabulation" def:StandardOID="STD.1" def:Structure="One record per medication per subject" def:Class="Interventions">
        <Description>
          <TranslatedText xml:lang="en">Concomitant Medications domain captures prior and concomitant medication data.</TranslatedText>
        </Description>
        <ItemRef ItemOID="IT.CM.STUDYID" OrderNumber="1" Mandatory="Yes" KeySequence="1"/>
        <ItemRef ItemOID="IT.CM.DOMAIN" OrderNumber="2" Mandatory="Yes" KeySequence="2"/>
        <ItemRef ItemOID="IT.CM.USUBJID" OrderNumber="3" Mandatory="Yes" KeySequence="3"/>
        <ItemRef ItemOID="IT.CM.CMSEQ" OrderNumber="4" Mandatory="Yes" KeySequence="4"/>
        <ItemRef ItemOID="IT.CM.CMTRT" OrderNumber="5" Mandatory="Yes"/>
        <ItemRef ItemOID="IT.CM.CMDECOD" OrderNumber="6" Mandatory="No"/>
        <ItemRef ItemOID="IT.CM.CMINDC" OrderNumber="7" Mandatory="No"/>
        <ItemRef ItemOID="IT.CM.CMSTDTC" OrderNumber="8" Mandatory="No"/>
        <ItemRef ItemOID="IT.CM.CMENDTC" OrderNumber="9" Mandatory="No"/>
      </ItemGroupDef>
      <ItemGroupDef OID="IG.CO" Name="CO" Repeating="Yes" IsReferenceData="No" SASDatasetName="CO" Purpose="Tabulation" def:StandardOID="STD.1" def:Structure="One record per comment per subject" def:Class="Special Purpose">
        <Description>
          <TranslatedText xml:lang="en">Comments domain for free-text comments.</TranslatedText>
        </Description>
        <ItemRef ItemOID="IT.CO.STUDYID" OrderNumber="1" Mandatory="Yes" KeySequence="1"/>
        <ItemRef ItemOID="IT.CO.DOMAIN" OrderNumber="2" Mandatory="Yes" KeySequence="2"/>
        <ItemRef ItemOID="IT.CO.USUBJID" OrderNumber="3" Mandatory="Yes" KeySequence="3"/>
        <ItemRef ItemOID="IT.CO.COSEQ" OrderNumber="4" Mandatory="Yes" KeySequence="4"/>
        <ItemRef ItemOID="IT.CO.COVAL" OrderNumber="5" Mandatory="Yes"/>
        <ItemRef ItemOID="IT.CO.CODTC" OrderNumber="6" Mandatory="No"/>
      </ItemGroupDef>
      <ItemGroupDef OID="IG.DD" Name="DD" Repeating="Yes" IsReferenceData="No" SASDatasetName="DD" Purpose="Tabulation" def:StandardOID="STD.1" def:Structure="One record per subject death" def:Class="Events">
        <Description>
          <TranslatedText xml:lang="en">Death Details captures detailed information about subject death.</TranslatedText>
        </Description>
        <ItemRef ItemOID="IT.DD.STUDYID" OrderNumber="1" Mandatory="Yes" KeySequence="1"/>
        <ItemRef ItemOID="IT.DD.DOMAIN" OrderNumber="2" Mandatory="Yes" KeySequence="2"/>
        <ItemRef ItemOID="IT.DD.USUBJID" OrderNumber="3" Mandatory="Yes" KeySequence="3"/>
        <ItemRef ItemOID="IT.DD.DDSEQ" OrderNumber="4" Mandatory="Yes" KeySequence="4"/>
        <ItemRef ItemOID="IT.DD.DDTESTCD" OrderNumber="5" Mandatory="Yes"/>
        <ItemRef ItemOID="IT.DD.DDTEST" OrderNumber="6" Mandatory="Yes"/>
        <ItemRef ItemOID="IT.DD.DDORRES" OrderNumber="7" Mandatory="No"/>
        <ItemRef ItemOID="IT.DD.DDSTRESC" OrderNumber="8" Mandatory="No"/>
        <ItemRef ItemOID="IT.DD.DDDTC" OrderNumber="9" Mandatory="No"/>
      </ItemGroupDef>
      <ItemGroupDef OID="IG.DM" Name="DM" Repeating="Yes" IsReferenceData="No" SASDatasetName="DM" Purpose="Tabulation" def:StandardOID="STD.1" def:Structure="One record per subject" def:Class="Special Purpose">
        <Description>
          <TranslatedText xml:lang="en">Demographics domain contains subject-level demographic information.</TranslatedText>
        </Description>
        <ItemRef ItemOID="IT.DM.STUDYID" OrderNumber="1" Mandatory="Yes" KeySequence="1"/>
        <ItemRef ItemOID="IT.DM.DOMAIN" OrderNumber="2" Mandatory="Yes" KeySequence="2"/>
        <ItemRef ItemOID="IT.DM.USUBJID" OrderNumber="3" Mandatory="Yes" KeySequence="3"/>
        <ItemRef ItemOID="IT.DM.SUBJID" OrderNumber="4" Mandatory="Yes"/>
        <ItemRef ItemOID="IT.DM.RFSTDTC" OrderNumber="5" Mandatory="No"/>
        <ItemRef ItemOID="IT.DM.RFENDTC" OrderNumber="6" Mandatory="No"/>
        <ItemRef ItemOID="IT.DM.RFXSTDTC" OrderNumber="7" Mandatory="No"/>
        <ItemRef ItemOID="IT.DM.RFXENDTC" OrderNumber="8" Mandatory="No"/>
        <ItemRef ItemOID="IT.DM.RFICDTC" OrderNumber="9" Mandatory="No"/>
        <ItemRef ItemOID="IT.DM.RFPENDTC" OrderNumber="10" Mandatory="No"/>
        <ItemRef ItemOID="IT.DM.DTHDTC" OrderNumber="11" Mandatory="No"/>
        <ItemRef ItemOID="IT.DM.DTHFL" OrderNumber="12" Mandatory="No"/>
        <ItemRef ItemOID="IT.DM.SITEID" OrderNumber="13" Mandatory="Yes"/>
        <ItemRef ItemOID="IT.DM.AGE" OrderNumber="14" Mandatory="No"/>
        <ItemRef ItemOID="IT.DM.AGEU" OrderNumber="15" Mandatory="No"/>
        <ItemRef ItemOID="IT.DM.SEX" OrderNumber="16" Mandatory="Yes"/>
        <ItemRef ItemOID="IT.DM.RACE" OrderNumber="17" Mandatory="No"/>
        <ItemRef ItemOID="IT.DM.ARMCD" OrderNumber="18" Mandatory="Yes"/>
        <ItemRef ItemOID="IT.DM.ARM" OrderNumber="19" Mandatory="Yes"/>
        <ItemRef ItemOID="IT.DM.ACTARMCD" OrderNumber="20" Mandatory="No"/>
        <ItemRef ItemOID="IT.DM.ACTARM" OrderNumber="21" Mandatory="No"/>
        <ItemRef ItemOID="IT.DM.COUNTRY" OrderNumber="22" Mandatory="Yes"/>
      </ItemGroupDef>
      <ItemGroupDef OID="IG.DS" Name="DS" Repeating="Yes" IsReferenceData="No" SASDatasetName="DS" Purpose="Tabulation" def:StandardOID="STD.1" def:Structure="One record per disposition status per subject" def:Class="Events">
        <Description>
          <TranslatedText xml:lang="en">Disposition domain captures subject disposition and protocol milestones.</TranslatedText>
        </Description>
        <ItemRef ItemOID="IT.DS.STUDYID" OrderNumber="1" Mandatory="Yes" KeySequence="1"/>
        <ItemRef ItemOID="IT.DS.DOMAIN" OrderNumber="2" Mandatory="Yes" KeySequence="2"/>
        <ItemRef ItemOID="IT.DS.USUBJID" OrderNumber="3" Mandatory="Yes" KeySequence="3"/>
        <ItemRef ItemOID="IT.DS.DSSEQ" OrderNumber="4" Mandatory="Yes" KeySequence="4"/>
        <ItemRef ItemOID="IT.DS.DSTERM" OrderNumber="5" Mandatory="Yes"/>
        <ItemRef ItemOID="IT.DS.DSDECOD" OrderNumber="6" Mandatory="Yes"/>
        <ItemRef ItemOID="IT.DS.DSCAT" OrderNumber="7" Mandatory="No"/>
        <ItemRef ItemOID="IT.DS.DSSTDTC" OrderNumber="8" Mandatory="No"/>
      </ItemGroupDef>
      <ItemGroupDef OID="IG.DV" Name="DV" Repeating="Yes" IsReferenceData="No" SASDatasetName="DV" Purpose="Tabulation" def:StandardOID="STD.1" def:Structure="One record per deviation per subject" def:Class="Events">
        <Description>
          <TranslatedText xml:lang="en">Protocol Deviations domain captures protocol deviation information.</TranslatedText>
        </Description>
        <ItemRef ItemOID="IT.DV.STUDYID" OrderNumber="1" Mandatory="Yes" KeySequence="1"/>
        <ItemRef ItemOID="IT.DV.DOMAIN" OrderNumber="2" Mandatory="Yes" KeySequence="2"/>
        <ItemRef ItemOID="IT.DV.USUBJID" OrderNumber="3" Mandatory="Yes" KeySequence="3"/>
        <ItemRef ItemOID="IT.DV.DVSEQ" OrderNumber="4" Mandatory="Yes" KeySequence="4"/>
        <ItemRef ItemOID="IT.DV.DVTERM" OrderNumber="5" Mandatory="Yes"/>
        <ItemRef ItemOID="IT.DV.DVSTDTC" OrderNumber="6" Mandatory="No"/>
      </ItemGroupDef>
      <ItemGroupDef OID="IG.EC" Name="EC" Repeating="Yes" IsReferenceData="No" SASDatasetName="EC" Purpose="Tabulation" def:StandardOID="STD.1" def:Structure="One record per protocol-specified study treatment per subject per date" def:Class="Interventions">
        <Description>
          <TranslatedText xml:lang="en">Exposure as Collected captures data as collected on the CRF.</TranslatedText>
        </Description>
        <ItemRef ItemOID="IT.EC.STUDYID" OrderNumber="1" Mandatory="Yes" KeySequence="1"/>
        <ItemRef ItemOID="IT.EC.DOMAIN" OrderNumber="2" Mandatory="Yes" KeySequence="2"/>
        <ItemRef ItemOID="IT.EC.USUBJID" OrderNumber="3" Mandatory="Yes" KeySequence="3"/>
        <ItemRef ItemOID="IT.EC.ECSEQ" OrderNumber="4" Mandatory="Yes" KeySequence="4"/>
        <ItemRef ItemOID="IT.EC.ECTRT" OrderNumber="5" Mandatory="Yes"/>
        <ItemRef ItemOID="IT.EC.ECDOSE" OrderNumber="6" Mandatory="No"/>
        <ItemRef ItemOID="IT.EC.ECDOSU" OrderNumber="7" Mandatory="No"/>
        <ItemRef ItemOID="IT.EC.ECDOSFRM" OrderNumber="8" Mandatory="No"/>
        <ItemRef ItemOID="IT.EC.ECROUTE" OrderNumber="9" Mandatory="No"/>
        <ItemRef ItemOID="IT.EC.ECSTDTC" OrderNumber="10" Mandatory="No"/>
        <ItemRef ItemOID="IT.EC.ECENDTC" OrderNumber="11" Mandatory="No"/>
        <ItemRef ItemOID="IT.EC.VISITNUM" OrderNumber="12" Mandatory="No"/>
        <ItemRef ItemOID="IT.EC.VISIT" OrderNumber="13" Mandatory="No"/>
      </ItemGroupDef>
      <ItemGroupDef OID="IG.EX" Name="EX" Repeating="Yes" IsReferenceData="No" SASDatasetName="EX" Purpose="Tabulation" def:StandardOID="STD.1" def:Structure="One record per constant-dosing interval per subject" def:Class="Interventions">
        <Description>
          <TranslatedText xml:lang="en">Exposure domain captures study treatment administration data.</TranslatedText>
        </Description>
        <ItemRef ItemOID="IT.EX.STUDYID" OrderNumber="1" Mandatory="Yes" KeySequence="1"/>
        <ItemRef ItemOID="IT.EX.DOMAIN" OrderNumber="2" Mandatory="Yes" KeySequence="2"/>
        <ItemRef ItemOID="IT.EX.USUBJID" OrderNumber="3" Mandatory="Yes" KeySequence="3"/>
        <ItemRef ItemOID="IT.EX.EXSEQ" OrderNumber="4" Mandatory="Yes" KeySequence="4"/>
        <ItemRef ItemOID="IT.EX.EXTRT" OrderNumber="5" Mandatory="Yes"/>
        <ItemRef ItemOID="IT.EX.EXDOSE" OrderNumber="6" Mandatory="No"/>
        <ItemRef ItemOID="IT.EX.EXDOSU" OrderNumber="7" Mandatory="No"/>
        <ItemRef ItemOID="IT.EX.EXDOSFRM" OrderNumber="8" Mandatory="No"/>
        <ItemRef ItemOID="IT.EX.EXDOSFRQ" OrderNumber="9" Mandatory="No"/>
        <ItemRef ItemOID="IT.EX.EXROUTE" OrderNumber="10" Mandatory="No"/>
        <ItemRef ItemOID="IT.EX.EXSTDTC" OrderNumber="11" Mandatory="No"/>
        <ItemRef ItemOID="IT.EX.EXENDTC" OrderNumber="12" Mandatory="No"/>
      </ItemGroupDef>
      <ItemGroupDef OID="IG.FA" Name="FA" Repeating="Yes" IsReferenceData="No" SASDatasetName="FA" Purpose="Tabulation" def:StandardOID="STD.1" def:Structure="One record per finding about per parent record per subject" def:Class="Findings About">
        <Description>
          <TranslatedText xml:lang="en">Findings About captures additional info about Events or Interventions.</TranslatedText>
        </Description>
        <ItemRef ItemOID="IT.FA.STUDYID" OrderNumber="1" Mandatory="Yes" KeySequence="1"/>
        <ItemRef ItemOID="IT.FA.DOMAIN" OrderNumber="2" Mandatory="Yes" KeySequence="2"/>
        <ItemRef ItemOID="IT.FA.USUBJID" OrderNumber="3" Mandatory="Yes" KeySequence="3"/>
        <ItemRef ItemOID="IT.FA.FASEQ" OrderNumber="4" Mandatory="Yes" KeySequence="4"/>
        <ItemRef ItemOID="IT.FA.FATESTCD" OrderNumber="5" Mandatory="Yes"/>
        <ItemRef ItemOID="IT.FA.FATEST" OrderNumber="6" Mandatory="Yes"/>
        <ItemRef ItemOID="IT.FA.FAOBJ" OrderNumber="7" Mandatory="Yes"/>
        <ItemRef ItemOID="IT.FA.FAORRES" OrderNumber="8" Mandatory="No"/>
        <ItemRef ItemOID="IT.FA.FASTRESC" OrderNumber="9" Mandatory="No"/>
        <ItemRef ItemOID="IT.FA.FADTC" OrderNumber="10" Mandatory="No"/>
      </ItemGroupDef>
      <ItemGroupDef OID="IG.IS" Name="IS" Repeating="Yes" IsReferenceData="No" SASDatasetName="IS" Purpose="Tabulation" def:StandardOID="STD.1" def:Structure="One record per specimen assessment per time point per subject" def:Class="Findings">
        <Description>
          <TranslatedText xml:lang="en">Immunogenicity Specimen captures anti-drug antibody assessments.</TranslatedText>
        </Description>
        <ItemRef ItemOID="IT.IS.STUDYID" OrderNumber="1" Mandatory="Yes" KeySequence="1"/>
        <ItemRef ItemOID="IT.IS.DOMAIN" OrderNumber="2" Mandatory="Yes" KeySequence="2"/>
        <ItemRef ItemOID="IT.IS.USUBJID" OrderNumber="3" Mandatory="Yes" KeySequence="3"/>
        <ItemRef ItemOID="IT.IS.ISSEQ" OrderNumber="4" Mandatory="Yes" KeySequence="4"/>
        <ItemRef ItemOID="IT.IS.ISTESTCD" OrderNumber="5" Mandatory="Yes"/>
        <ItemRef ItemOID="IT.IS.ISTEST" OrderNumber="6" Mandatory="Yes"/>
        <ItemRef ItemOID="IT.IS.ISORRES" OrderNumber="7" Mandatory="No"/>
        <ItemRef ItemOID="IT.IS.ISSTRESC" OrderNumber="8" Mandatory="No"/>
        <ItemRef ItemOID="IT.IS.ISSPEC" OrderNumber="9" Mandatory="No"/>
        <ItemRef ItemOID="IT.IS.ISDTC" OrderNumber="10" Mandatory="No"/>
        <ItemRef ItemOID="IT.IS.VISITNUM" OrderNumber="11" Mandatory="No"/>
        <ItemRef ItemOID="IT.IS.VISIT" OrderNumber="12" Mandatory="No"/>
      </ItemGroupDef>
      <ItemGroupDef OID="IG.LB" Name="LB" Repeating="Yes" IsReferenceData="No" SASDatasetName="LB" Purpose="Tabulation" def:StandardOID="STD.1" def:Structure="One record per lab test per time point per subject" def:Class="Findings">
        <Description>
          <TranslatedText xml:lang="en">Laboratory Test Results domain captures central and local lab data.</TranslatedText>
        </Description>
        <ItemRef ItemOID="IT.LB.STUDYID" OrderNumber="1" Mandatory="Yes" KeySequence="1"/>
        <ItemRef ItemOID="IT.LB.DOMAIN" OrderNumber="2" Mandatory="Yes" KeySequence="2"/>
        <ItemRef ItemOID="IT.LB.USUBJID" OrderNumber="3" Mandatory="Yes" KeySequence="3"/>
        <ItemRef ItemOID="IT.LB.LBSEQ" OrderNumber="4" Mandatory="Yes" KeySequence="4"/>
        <ItemRef ItemOID="IT.LB.LBTESTCD" OrderNumber="5" Mandatory="Yes"/>
        <ItemRef ItemOID="IT.LB.LBTEST" OrderNumber="6" Mandatory="Yes"/>
        <ItemRef ItemOID="IT.LB.LBCAT" OrderNumber="7" Mandatory="No"/>
        <ItemRef ItemOID="IT.LB.LBORRES" OrderNumber="8" Mandatory="No"/>
        <ItemRef ItemOID="IT.LB.LBORRESU" OrderNumber="9" Mandatory="No"/>
        <ItemRef ItemOID="IT.LB.LBORNRLO" OrderNumber="10" Mandatory="No"/>
        <ItemRef ItemOID="IT.LB.LBORNRHI" OrderNumber="11" Mandatory="No"/>
        <ItemRef ItemOID="IT.LB.LBSTRESC" OrderNumber="12" Mandatory="No"/>
        <ItemRef ItemOID="IT.LB.LBSTRESN" OrderNumber="13" Mandatory="No"/>
        <ItemRef ItemOID="IT.LB.LBSTRESU" OrderNumber="14" Mandatory="No"/>
        <ItemRef ItemOID="IT.LB.LBSTNRLO" OrderNumber="15" Mandatory="No"/>
        <ItemRef ItemOID="IT.LB.LBSTNRHI" OrderNumber="16" Mandatory="No"/>
        <ItemRef ItemOID="IT.LB.LBNRIND" OrderNumber="17" Mandatory="No"/>
        <ItemRef ItemOID="IT.LB.LBDTC" OrderNumber="18" Mandatory="No"/>
        <ItemRef ItemOID="IT.LB.VISITNUM" OrderNumber="19" Mandatory="No"/>
        <ItemRef ItemOID="IT.LB.VISIT" OrderNumber="20" Mandatory="No"/>
      </ItemGroupDef>
      <ItemGroupDef OID="IG.MH" Name="MH" Repeating="Yes" IsReferenceData="No" SASDatasetName="MH" Purpose="Tabulation" def:StandardOID="STD.1" def:Structure="One record per medical history event per subject" def:Class="Events">
        <Description>
          <TranslatedText xml:lang="en">Medical History domain captures subject's medical history.</TranslatedText>
        </Description>
        <ItemRef ItemOID="IT.MH.STUDYID" OrderNumber="1" Mandatory="Yes" KeySequence="1"/>
        <ItemRef ItemOID="IT.MH.DOMAIN" OrderNumber="2" Mandatory="Yes" KeySequence="2"/>
        <ItemRef ItemOID="IT.MH.USUBJID" OrderNumber="3" Mandatory="Yes" KeySequence="3"/>
        <ItemRef ItemOID="IT.MH.MHSEQ" OrderNumber="4" Mandatory="Yes" KeySequence="4"/>
        <ItemRef ItemOID="IT.MH.MHTERM" OrderNumber="5" Mandatory="Yes"/>
        <ItemRef ItemOID="IT.MH.MHDECOD" OrderNumber="6" Mandatory="No"/>
        <ItemRef ItemOID="IT.MH.MHBODSYS" OrderNumber="7" Mandatory="No"/>
        <ItemRef ItemOID="IT.MH.MHSTDTC" OrderNumber="8" Mandatory="No"/>
      </ItemGroupDef>
      <ItemGroupDef OID="IG.PC" Name="PC" Repeating="Yes" IsReferenceData="No" SASDatasetName="PC" Purpose="Tabulation" def:StandardOID="STD.1" def:Structure="One record per concentration per time point per subject" def:Class="Findings">
        <Description>
          <TranslatedText xml:lang="en">PK Concentrations domain captures drug concentration measurements.</TranslatedText>
        </Description>
        <ItemRef ItemOID="IT.PC.STUDYID" OrderNumber="1" Mandatory="Yes" KeySequence="1"/>
        <ItemRef ItemOID="IT.PC.DOMAIN" OrderNumber="2" Mandatory="Yes" KeySequence="2"/>
        <ItemRef ItemOID="IT.PC.USUBJID" OrderNumber="3" Mandatory="Yes" KeySequence="3"/>
        <ItemRef ItemOID="IT.PC.PCSEQ" OrderNumber="4" Mandatory="Yes" KeySequence="4"/>
        <ItemRef ItemOID="IT.PC.PCTESTCD" OrderNumber="5" Mandatory="Yes"/>
        <ItemRef ItemOID="IT.PC.PCTEST" OrderNumber="6" Mandatory="Yes"/>
        <ItemRef ItemOID="IT.PC.PCORRES" OrderNumber="7" Mandatory="No"/>
        <ItemRef ItemOID="IT.PC.PCORRESU" OrderNumber="8" Mandatory="No"/>
        <ItemRef ItemOID="IT.PC.PCSTRESC" OrderNumber="9" Mandatory="No"/>
        <ItemRef ItemOID="IT.PC.PCSTRESN" OrderNumber="10" Mandatory="No"/>
        <ItemRef ItemOID="IT.PC.PCSTRESU" OrderNumber="11" Mandatory="No"/>
        <ItemRef ItemOID="IT.PC.PCSPEC" OrderNumber="12" Mandatory="No"/>
        <ItemRef ItemOID="IT.PC.PCDTC" OrderNumber="13" Mandatory="No"/>
        <ItemRef ItemOID="IT.PC.PCTPT" OrderNumber="14" Mandatory="No"/>
        <ItemRef ItemOID="IT.PC.PCTPTNUM" OrderNumber="15" Mandatory="No"/>
        <ItemRef ItemOID="IT.PC.PCELTM" OrderNumber="16" Mandatory="No"/>
        <ItemRef ItemOID="IT.PC.PCTPTREF" OrderNumber="17" Mandatory="No"/>
        <ItemRef ItemOID="IT.PC.PCRFTDTC" OrderNumber="18" Mandatory="No"/>
        <ItemRef ItemOID="IT.PC.VISITNUM" OrderNumber="19" Mandatory="No"/>
        <ItemRef ItemOID="IT.PC.VISIT" OrderNumber="20" Mandatory="No"/>
      </ItemGroupDef>
      <ItemGroupDef OID="IG.PP" Name="PP" Repeating="Yes" IsReferenceData="No" SASDatasetName="PP" Purpose="Tabulation" def:StandardOID="STD.1" def:Structure="One record per PK parameter per subject" def:Class="Findings">
        <Description>
          <TranslatedText xml:lang="en">PK Parameters domain captures derived PK parameters.</TranslatedText>
        </Description>
        <ItemRef ItemOID="IT.PP.STUDYID" OrderNumber="1" Mandatory="Yes" KeySequence="1"/>
        <ItemRef ItemOID="IT.PP.DOMAIN" OrderNumber="2" Mandatory="Yes" KeySequence="2"/>
        <ItemRef ItemOID="IT.PP.USUBJID" OrderNumber="3" Mandatory="Yes" KeySequence="3"/>
        <ItemRef ItemOID="IT.PP.PPSEQ" OrderNumber="4" Mandatory="Yes" KeySequence="4"/>
        <ItemRef ItemOID="IT.PP.PPTESTCD" OrderNumber="5" Mandatory="Yes"/>
        <ItemRef ItemOID="IT.PP.PPTEST" OrderNumber="6" Mandatory="Yes"/>
        <ItemRef ItemOID="IT.PP.PPORRES" OrderNumber="7" Mandatory="No"/>
        <ItemRef ItemOID="IT.PP.PPORRESU" OrderNumber="8" Mandatory="No"/>
        <ItemRef ItemOID="IT.PP.PPSTRESC" OrderNumber="9" Mandatory="No"/>
        <ItemRef ItemOID="IT.PP.PPSTRESN" OrderNumber="10" Mandatory="No"/>
        <ItemRef ItemOID="IT.PP.PPSTRESU" OrderNumber="11" Mandatory="No"/>
        <ItemRef ItemOID="IT.PP.PPRFTDTC" OrderNumber="12" Mandatory="No"/>
        <ItemRef ItemOID="IT.PP.VISITNUM" OrderNumber="13" Mandatory="No"/>
        <ItemRef ItemOID="IT.PP.VISIT" OrderNumber="14" Mandatory="No"/>
      </ItemGroupDef>
      <ItemGroupDef OID="IG.QS" Name="QS" Repeating="Yes" IsReferenceData="No" SASDatasetName="QS" Purpose="Tabulation" def:StandardOID="STD.1" def:Structure="One record per questionnaire item per time point per subject" def:Class="Findings">
        <Description>
          <TranslatedText xml:lang="en">Questionnaires domain captures PRO and clinician-reported outcomes.</TranslatedText>
        </Description>
        <ItemRef ItemOID="IT.QS.STUDYID" OrderNumber="1" Mandatory="Yes" KeySequence="1"/>
        <ItemRef ItemOID="IT.QS.DOMAIN" OrderNumber="2" Mandatory="Yes" KeySequence="2"/>
        <ItemRef ItemOID="IT.QS.USUBJID" OrderNumber="3" Mandatory="Yes" KeySequence="3"/>
        <ItemRef ItemOID="IT.QS.QSSEQ" OrderNumber="4" Mandatory="Yes" KeySequence="4"/>
        <ItemRef ItemOID="IT.QS.QSTESTCD" OrderNumber="5" Mandatory="Yes"/>
        <ItemRef ItemOID="IT.QS.QSTEST" OrderNumber="6" Mandatory="Yes"/>
        <ItemRef ItemOID="IT.QS.QSCAT" OrderNumber="7" Mandatory="Yes"/>
        <ItemRef ItemOID="IT.QS.QSORRES" OrderNumber="8" Mandatory="No"/>
        <ItemRef ItemOID="IT.QS.QSSTRESC" OrderNumber="9" Mandatory="No"/>
        <ItemRef ItemOID="IT.QS.QSSTRESN" OrderNumber="10" Mandatory="No"/>
        <ItemRef ItemOID="IT.QS.QSDTC" OrderNumber="11" Mandatory="No"/>
        <ItemRef ItemOID="IT.QS.VISITNUM" OrderNumber="12" Mandatory="No"/>
        <ItemRef ItemOID="IT.QS.VISIT" OrderNumber="13" Mandatory="No"/>
      </ItemGroupDef>
      <ItemGroupDef OID="IG.RELREC" Name="RELREC" Repeating="No" IsReferenceData="No" SASDatasetName="RELREC" Purpose="Tabulation" def:StandardOID="STD.1" def:Structure="One record per related record relationship" def:Class="Relationship">
        <Description>
          <TranslatedText xml:lang="en">Related Records domain links records between domains.</TranslatedText>
        </Description>
        <ItemRef ItemOID="IT.RELREC.STUDYID" OrderNumber="1" Mandatory="Yes" KeySequence="1"/>
        <ItemRef ItemOID="IT.RELREC.RDOMAIN" OrderNumber="2" Mandatory="Yes" KeySequence="2"/>
        <ItemRef ItemOID="IT.RELREC.IDVAR" OrderNumber="3" Mandatory="Yes" KeySequence="3"/>
        <ItemRef ItemOID="IT.RELREC.IDVARVAL" OrderNumber="4" Mandatory="Yes" KeySequence="4"/>
      </ItemGroupDef>
      <ItemGroupDef OID="IG.RS" Name="RS" Repeating="Yes" IsReferenceData="No" SASDatasetName="RS" Purpose="Tabulation" def:StandardOID="STD.1" def:Structure="One record per response assessment per time point per subject" def:Class="Findings">
        <Description>
          <TranslatedText xml:lang="en">Disease Response domain captures tumor response assessments.</TranslatedText>
        </Description>
        <ItemRef ItemOID="IT.RS.STUDYID" OrderNumber="1" Mandatory="Yes" KeySequence="1"/>
        <ItemRef ItemOID="IT.RS.DOMAIN" OrderNumber="2" Mandatory="Yes" KeySequence="2"/>
        <ItemRef ItemOID="IT.RS.USUBJID" OrderNumber="3" Mandatory="Yes" KeySequence="3"/>
        <ItemRef ItemOID="IT.RS.RSSEQ" OrderNumber="4" Mandatory="Yes" KeySequence="4"/>
        <ItemRef ItemOID="IT.RS.RSTESTCD" OrderNumber="5" Mandatory="Yes"/>
        <ItemRef ItemOID="IT.RS.RSTEST" OrderNumber="6" Mandatory="Yes"/>
        <ItemRef ItemOID="IT.RS.RSCAT" OrderNumber="7" Mandatory="No"/>
        <ItemRef ItemOID="IT.RS.RSORRES" OrderNumber="8" Mandatory="No"/>
        <ItemRef ItemOID="IT.RS.RSSTRESC" OrderNumber="9" Mandatory="No"/>
        <ItemRef ItemOID="IT.RS.RSEVAL" OrderNumber="10" Mandatory="No"/>
        <ItemRef ItemOID="IT.RS.RSDTC" OrderNumber="11" Mandatory="No"/>
        <ItemRef ItemOID="IT.RS.VISITNUM" OrderNumber="12" Mandatory="No"/>
        <ItemRef ItemOID="IT.RS.VISIT" OrderNumber="13" Mandatory="No"/>
      </ItemGroupDef>
      <ItemGroupDef OID="IG.SC" Name="SC" Repeating="Yes" IsReferenceData="No" SASDatasetName="SC" Purpose="Tabulation" def:StandardOID="STD.1" def:Structure="One record per characteristic per subject" def:Class="Special Purpose">
        <Description>
          <TranslatedText xml:lang="en">Subject Characteristics for additional subject-level data.</TranslatedText>
        </Description>
        <ItemRef ItemOID="IT.SC.STUDYID" OrderNumber="1" Mandatory="Yes" KeySequence="1"/>
        <ItemRef ItemOID="IT.SC.DOMAIN" OrderNumber="2" Mandatory="Yes" KeySequence="2"/>
        <ItemRef ItemOID="IT.SC.USUBJID" OrderNumber="3" Mandatory="Yes" KeySequence="3"/>
        <ItemRef ItemOID="IT.SC.SCSEQ" OrderNumber="4" Mandatory="Yes" KeySequence="4"/>
        <ItemRef ItemOID="IT.SC.SCTESTCD" OrderNumber="5" Mandatory="Yes"/>
        <ItemRef ItemOID="IT.SC.SCTEST" OrderNumber="6" Mandatory="Yes"/>
        <ItemRef ItemOID="IT.SC.SCORRES" OrderNumber="7" Mandatory="No"/>
        <ItemRef ItemOID="IT.SC.SCSTRESC" OrderNumber="8" Mandatory="No"/>
      </ItemGroupDef>
      <ItemGroupDef OID="IG.SE" Name="SE" Repeating="Yes" IsReferenceData="No" SASDatasetName="SE" Purpose="Tabulation" def:StandardOID="STD.1" def:Structure="One record per actual Element per subject" def:Class="Special Purpose">
        <Description>
          <TranslatedText xml:lang="en">Subject Elements describes actual Elements through which the subject passed.</TranslatedText>
        </Description>
        <ItemRef ItemOID="IT.SE.STUDYID" OrderNumber="1" Mandatory="Yes" KeySequence="1"/>
        <ItemRef ItemOID="IT.SE.DOMAIN" OrderNumber="2" Mandatory="Yes" KeySequence="2"/>
        <ItemRef ItemOID="IT.SE.USUBJID" OrderNumber="3" Mandatory="Yes" KeySequence="3"/>
        <ItemRef ItemOID="IT.SE.SESEQ" OrderNumber="4" Mandatory="Yes" KeySequence="4"/>
        <ItemRef ItemOID="IT.SE.ETCD" OrderNumber="5" Mandatory="Yes"/>
        <ItemRef ItemOID="IT.SE.ELEMENT" OrderNumber="6" Mandatory="No"/>
        <ItemRef ItemOID="IT.SE.EPOCH" OrderNumber="7" Mandatory="Yes"/>
        <ItemRef ItemOID="IT.SE.SESTDTC" OrderNumber="8" Mandatory="No"/>
        <ItemRef ItemOID="IT.SE.SEENDTC" OrderNumber="9" Mandatory="No"/>
      </ItemGroupDef>
      <ItemGroupDef OID="IG.TA" Name="TA" Repeating="No" IsReferenceData="No" SASDatasetName="TA" Purpose="Tabulation" def:StandardOID="STD.1" def:Structure="One record per planned Element per Arm" def:Class="Trial Design">
        <Description>
          <TranslatedText xml:lang="en">Trial Arms domain describes each planned Arm in the trial.</TranslatedText>
        </Description>
        <ItemRef ItemOID="IT.TA.STUDYID" OrderNumber="1" Mandatory="Yes" KeySequence="1"/>
        <ItemRef ItemOID="IT.TA.DOMAIN" OrderNumber="2" Mandatory="Yes" KeySequence="2"/>
        <ItemRef ItemOID="IT.TA.ARMCD" OrderNumber="3" Mandatory="Yes"/>
        <ItemRef ItemOID="IT.TA.ARM" OrderNumber="4" Mandatory="Yes"/>
        <ItemRef ItemOID="IT.TA.TAETORD" OrderNumber="5" Mandatory="Yes"/>
        <ItemRef ItemOID="IT.TA.ETCD" OrderNumber="6" Mandatory="Yes"/>
        <ItemRef ItemOID="IT.TA.ELEMENT" OrderNumber="7" Mandatory="Yes"/>
        <ItemRef ItemOID="IT.TA.EPOCH" OrderNumber="8" Mandatory="Yes"/>
      </ItemGroupDef>
      <ItemGroupDef OID="IG.TE" Name="TE" Repeating="No" IsReferenceData="No" SASDatasetName="TE" Purpose="Tabulation" def:StandardOID="STD.1" def:Structure="One record per planned Element" def:Class="Trial Design">
        <Description>
          <TranslatedText xml:lang="en">Trial Elements domain describes basic building blocks of trial design.</TranslatedText>
        </Description>
        <ItemRef ItemOID="IT.TE.STUDYID" OrderNumber="1" Mandatory="Yes" KeySequence="1"/>
        <ItemRef ItemOID="IT.TE.DOMAIN" OrderNumber="2" Mandatory="Yes" KeySequence="2"/>
        <ItemRef ItemOID="IT.TE.ETCD" OrderNumber="3" Mandatory="Yes"/>
        <ItemRef ItemOID="IT.TE.ELEMENT" OrderNumber="4" Mandatory="Yes"/>
      </ItemGroupDef>
      <ItemGroupDef OID="IG.TR" Name="TR" Repeating="Yes" IsReferenceData="No" SASDatasetName="TR" Purpose="Tabulation" def:StandardOID="STD.1" def:Structure="One record per tumor assessment per time point per subject" def:Class="Findings">
        <Description>
          <TranslatedText xml:lang="en">Tumor Results domain captures tumor identification and measurements.</TranslatedText>
        </Description>
        <ItemRef ItemOID="IT.TR.STUDYID" OrderNumber="1" Mandatory="Yes" KeySequence="1"/>
        <ItemRef ItemOID="IT.TR.DOMAIN" OrderNumber="2" Mandatory="Yes" KeySequence="2"/>
        <ItemRef ItemOID="IT.TR.USUBJID" OrderNumber="3" Mandatory="Yes" KeySequence="3"/>
        <ItemRef ItemOID="IT.TR.TRSEQ" OrderNumber="4" Mandatory="Yes" KeySequence="4"/>
        <ItemRef ItemOID="IT.TR.TRLNKID" OrderNumber="5" Mandatory="No" KeySequence="5"/>
        <ItemRef ItemOID="IT.TR.TRTESTCD" OrderNumber="6" Mandatory="Yes"/>
        <ItemRef ItemOID="IT.TR.TRTEST" OrderNumber="7" Mandatory="Yes"/>
        <ItemRef ItemOID="IT.TR.TRORRES" OrderNumber="8" Mandatory="No"/>
        <ItemRef ItemOID="IT.TR.TRORRESU" OrderNumber="9" Mandatory="No"/>
        <ItemRef ItemOID="IT.TR.TRSTRESC" OrderNumber="10" Mandatory="No"/>
        <ItemRef ItemOID="IT.TR.TRSTRESN" OrderNumber="11" Mandatory="No"/>
        <ItemRef ItemOID="IT.TR.TRSTRESU" OrderNumber="12" Mandatory="No"/>
        <ItemRef ItemOID="IT.TR.TRMETHOD" OrderNumber="13" Mandatory="No"/>
        <ItemRef ItemOID="IT.TR.TREVAL" OrderNumber="14" Mandatory="No"/>
        <ItemRef ItemOID="IT.TR.TRDTC" OrderNumber="15" Mandatory="No"/>
        <ItemRef ItemOID="IT.TR.VISITNUM" OrderNumber="16" Mandatory="No"/>
        <ItemRef ItemOID="IT.TR.VISIT" OrderNumber="17" Mandatory="No"/>
      </ItemGroupDef>
      <ItemGroupDef OID="IG.TS" Name="TS" Repeating="No" IsReferenceData="No" SASDatasetName="TS" Purpose="Tabulation" def:StandardOID="STD.1" def:Structure="One record per trial summary parameter value" def:Class="Trial Design">
        <Description>
          <TranslatedText xml:lang="en">Trial Summary domain describes overall trial information.</TranslatedText>
        </Description>
        <ItemRef ItemOID="IT.TS.STUDYID" OrderNumber="1" Mandatory="Yes" KeySequence="1"/>
        <ItemRef ItemOID="IT.TS.DOMAIN" OrderNumber="2" Mandatory="Yes" KeySequence="2"/>
        <ItemRef ItemOID="IT.TS.TSSEQ" OrderNumber="3" Mandatory="Yes" KeySequence="3"/>
        <ItemRef ItemOID="IT.TS.TSPARMCD" OrderNumber="4" Mandatory="Yes"/>
        <ItemRef ItemOID="IT.TS.TSPARM" OrderNumber="5" Mandatory="Yes"/>
        <ItemRef ItemOID="IT.TS.TSVAL" OrderNumber="6" Mandatory="Yes"/>
      </ItemGroupDef>
      <ItemGroupDef OID="IG.TU" Name="TU" Repeating="Yes" IsReferenceData="No" SASDatasetName="TU" Purpose="Tabulation" def:StandardOID="STD.1" def:Structure="One record per tumor identified per subject" def:Class="Findings">
        <Description>
          <TranslatedText xml:lang="en">Tumor Identification domain captures tumor/lesion characteristics.</TranslatedText>
        </Description>
        <ItemRef ItemOID="IT.TU.STUDYID" OrderNumber="1" Mandatory="Yes" KeySequence="1"/>
        <ItemRef ItemOID="IT.TU.DOMAIN" OrderNumber="2" Mandatory="Yes" KeySequence="2"/>
        <ItemRef ItemOID="IT.TU.USUBJID" OrderNumber="3" Mandatory="Yes" KeySequence="3"/>
        <ItemRef ItemOID="IT.TU.TUSEQ" OrderNumber="4" Mandatory="Yes" KeySequence="4"/>
        <ItemRef ItemOID="IT.TU.TULNKID" OrderNumber="5" Mandatory="Yes" KeySequence="5"/>
        <ItemRef ItemOID="IT.TU.TUTESTCD" OrderNumber="6" Mandatory="Yes"/>
        <ItemRef ItemOID="IT.TU.TUTEST" OrderNumber="7" Mandatory="Yes"/>
        <ItemRef ItemOID="IT.TU.TUORRES" OrderNumber="8" Mandatory="No"/>
        <ItemRef ItemOID="IT.TU.TUSTRESC" OrderNumber="9" Mandatory="No"/>
        <ItemRef ItemOID="IT.TU.TULOC" OrderNumber="10" Mandatory="No"/>
        <ItemRef ItemOID="IT.TU.TUMETHOD" OrderNumber="11" Mandatory="No"/>
        <ItemRef ItemOID="IT.TU.TUEVAL" OrderNumber="12" Mandatory="No"/>
        <ItemRef ItemOID="IT.TU.TUDTC" OrderNumber="13" Mandatory="No"/>
        <ItemRef ItemOID="IT.TU.VISITNUM" OrderNumber="14" Mandatory="No"/>
        <ItemRef ItemOID="IT.TU.VISIT" OrderNumber="15" Mandatory="No"/>
        <ItemRef ItemOID="IT.TU.TUDY" OrderNumber="16" Mandatory="No"/>
      </ItemGroupDef>
      <ItemGroupDef OID="IG.TV" Name="TV" Repeating="No" IsReferenceData="No" SASDatasetName="TV" Purpose="Tabulation" def:StandardOID="STD.1" def:Structure="One record per planned Visit per Arm" def:Class="Trial Design">
        <Description>
          <TranslatedText xml:lang="en">Trial Visits domain describes planned study visits.</TranslatedText>
        </Description>
        <ItemRef ItemOID="IT.TV.STUDYID" OrderNumber="1" Mandatory="Yes" KeySequence="1"/>
        <ItemRef ItemOID="IT.TV.DOMAIN" OrderNumber="2" Mandatory="Yes" KeySequence="2"/>
        <ItemRef ItemOID="IT.TV.VISITNUM" OrderNumber="3" Mandatory="Yes"/>
        <ItemRef ItemOID="IT.TV.VISIT" OrderNumber="4" Mandatory="Yes"/>
        <ItemRef ItemOID="IT.TV.ARMCD" OrderNumber="5" Mandatory="Yes"/>
        <ItemRef ItemOID="IT.TV.ARM" OrderNumber="6" Mandatory="No"/>
      </ItemGroupDef>
      <ItemDef OID="IT.AE.STUDYID" Name="STUDYID" DataType="text" SASFieldName="STUDYID" Length="200">
        <Description>
          <TranslatedText xml:lang="en">Study Identifier</TranslatedText>
        </Description>
        <def:Origin Type="Derived"/>
      </ItemDef>
      <ItemDef OID="IT.AE.DOMAIN" Name="DOMAIN" DataType="text" SASFieldName="DOMAIN" Length="200">
        <Description>
          <TranslatedText xml:lang="en">Domain Abbreviation</TranslatedText>
        </Description>
        <def:Origin Type="Derived"/>
      </ItemDef>
      <ItemDef OID="IT.AE.USUBJID" Name="USUBJID" DataType="text" SASFieldName="USUBJID" Length="200">
        <Description>
          <TranslatedText xml:lang="en">Unique Subject Identifier</TranslatedText>
        </Description>
        <def:Origin Type="Derived"/>
      </ItemDef>
      <ItemDef OID="IT.AE.AESEQ" Name="AESEQ" DataType="integer" SASFieldName="AESEQ">
        <Description>
          <TranslatedText xml:lang="en">Sequence Number</TranslatedText>
        </Description>
        <def:Origin Type="Derived"/>
      </ItemDef>
      <ItemDef OID="IT.AE.AETERM" Name="AETERM" DataType="text" SASFieldName="AETERM" Length="200">
        <Description>
          <TranslatedText xml:lang="en">Reported Term for the Adverse Event</TranslatedText>
        </Description>
        <def:Origin Type="Collected"/>
      </ItemDef>
      <ItemDef OID="IT.AE.AEDECOD" Name="AEDECOD" DataType="text" SASFieldName="AEDECOD" Length="200">
        <Description>
          <TranslatedText xml:lang="en">Dictionary-Derived Term</TranslatedText>
        </Description>
        <def:Origin Type="Derived"/>
      </ItemDef>
      <ItemDef OID="IT.AE.AEBODSYS" Name="AEBODSYS" DataType="text" SASFieldName="AEBODSYS" Length="200">
        <Description>
          <TranslatedText xml:lang="en">Body System or Organ Class</TranslatedText>
        </Description>
        <def:Origin Type="Derived"/>
      </ItemDef>
      <ItemDef OID="IT.AE.AESOC" Name="AESOC" DataType="text" SASFieldName="AESOC" Length="200">
        <Description>
          <TranslatedText xml:lang="en">Primary System Organ Class</TranslatedText>
        </Description>
        <def:Origin Type="Derived"/>
      </ItemDef>
      <ItemDef OID="IT.AE.AESER" Name="AESER" DataType="text" SASFieldName="AESER" Length="200">
        <Description>
          <TranslatedText xml:lang="en">Serious Event</TranslatedText>
        </Description>
        <CodeListRef CodeListOID="CL.NY"/>
        <def:Origin Type="Collected"/>
      </ItemDef>
      <ItemDef OID="IT.AE.AEACN" Name="AEACN" DataType="text" SASFieldName="AEACN" Length="200">
        <Description>
          <TranslatedText xml:lang="en">Action Taken with Study Treatment</TranslatedText>
        </Description>
        <CodeListRef CodeListOID="CL.ACN"/>
        <def:Origin Type="Collected"/>
      </ItemDef>
      <ItemDef OID="IT.AE.AEREL" Name="AEREL" DataType="text" SASFieldName="AEREL" Length="200">
        <Description>
          <TranslatedText xml:lang="en">Causality</TranslatedText>
        </Description>
        <def:Origin Type="Collected"/>
      </ItemDef>
      <ItemDef OID="IT.AE.AEOUT" Name="AEOUT" DataType="text" SASFieldName="AEOUT" Length="200">
        <Description>
          <TranslatedText xml:lang="en">Outcome of Adverse Event</TranslatedText>
        </Description>
        <CodeListRef CodeListOID="CL.OUT"/>
        <def:Origin Type="Collected"/>
      </ItemDef>
      <ItemDef OID="IT.AE.AESTDTC" Name="AESTDTC" DataType="text" SASFieldName="AESTDTC" Length="200">
        <Description>
          <TranslatedText xml:lang="en">Start Date/Time of Adverse Event</TranslatedText>
        </Description>
        <def:Origin Type="Derived"/>
      </ItemDef>
      <ItemDef OID="IT.AE.AEENDTC" Name="AEENDTC" DataType="text" SASFieldName="AEENDTC" Length="200">
        <Description>
          <TranslatedText xml:lang="en">End Date/Time of Adverse Event</TranslatedText>
        </Description>
        <def:Origin Type="Derived"/>
      </ItemDef>
      <ItemDef OID="IT.CE.STUDYID" Name="STUDYID" DataType="text" SASFieldName="STUDYID" Length="200">
        <Description>
          <TranslatedText xml:lang="en">Study Identifier</TranslatedText>
        </Description>
        <def:Origin Type="Derived"/>
      </ItemDef>
      <ItemDef OID="IT.CE.DOMAIN" Name="DOMAIN" DataType="text" SASFieldName="DOMAIN" Length="200">
        <Description>
          <TranslatedText xml:lang="en">Domain Abbreviation</TranslatedText>
        </Description>
        <def:Origin Type="Derived"/>
      </ItemDef>
      <ItemDef OID="IT.CE.USUBJID" Name="USUBJID" DataType="text" SASFieldName="USUBJID" Length="200">
        <Description>
          <TranslatedText xml:lang="en">Unique Subject Identifier</TranslatedText>
        </Description>
        <def:Origin Type="Derived"/>
      </ItemDef>
      <ItemDef OID="IT.CE.CESEQ" Name="CESEQ" DataType="integer" SASFieldName="CESEQ">
        <Description>
          <TranslatedText xml:lang="en">Sequence Number</TranslatedText>
        </Description>
        <def:Origin Type="Derived"/>
      </ItemDef>
      <ItemDef OID="IT.CE.CETERM" Name="CETERM" DataType="text" SASFieldName="CETERM" Length="200">
        <Description>
          <TranslatedText xml:lang="en">Reported Term for the Clinical Event</TranslatedText>
        </Description>
        <def:Origin Type="Collected"/>
      </ItemDef>
      <ItemDef OID="IT.CE.CEDECOD" Name="CEDECOD" DataType="text" SASFieldName="CEDECOD" Length="200">
        <Description>
          <TranslatedText xml:lang="en">Dictionary-Derived Term</TranslatedText>
        </Description>
        <def:Origin Type="Derived"/>
      </ItemDef>
      <ItemDef OID="IT.CE.CESTDTC" Name="CESTDTC" DataType="text" SASFieldName="CESTDTC" Length="200">
        <Description>
          <TranslatedText xml:lang="en">Start Date/Time of Clinical Event</TranslatedText>
        </Description>
        <def:Origin Type="Derived"/>
      </ItemDef>
      <ItemDef OID="IT.CE.CEENDTC" Name="CEENDTC" DataType="text" SASFieldName="CEENDTC" Length="200">
        <Description>
          <TranslatedText xml:lang="en">End Date/Time of Clinical Event</TranslatedText>
        </Description>
        <def:Origin Type="Derived"/>
      </ItemDef>
      <ItemDef OID="IT.CE.VISITNUM" Name="VISITNUM" DataType="integer" SASFieldName="VISITNUM">
        <Description>
          <TranslatedText xml:lang="en">Visit Number</TranslatedText>
        </Description>
        <def:Origin Type="Derived"/>
      </ItemDef>
      <ItemDef OID="IT.CE.VISIT" Name="VISIT" DataType="text" SASFieldName="VISIT" Length="200">
        <Description>
          <TranslatedText xml:lang="en">Visit Name</TranslatedText>
        </Description>
        <def:Origin Type="Derived"/>
      </ItemDef>
      <ItemDef OID="IT.CM.STUDYID" Name="STUDYID" DataType="text" SASFieldName="STUDYID" Length="200">
        <Description>
          <TranslatedText xml:lang="en">Study Identifier</TranslatedText>
        </Description>
        <def:Origin Type="Derived"/>
      </ItemDef>
      <ItemDef OID="IT.CM.DOMAIN" Name="DOMAIN" DataType="text" SASFieldName="DOMAIN" Length="200">
        <Description>
          <TranslatedText xml:lang="en">Domain Abbreviation</TranslatedText>
        </Description>
        <def:Origin Type="Derived"/>
      </ItemDef>
      <ItemDef OID="IT.CM.USUBJID" Name="USUBJID" DataType="text" SASFieldName="USUBJID" Length="200">
        <Description>
          <TranslatedText xml:lang="en">Unique Subject Identifier</TranslatedText>
        </Description>
        <def:Origin Type="Derived"/>
      </ItemDef>
      <ItemDef OID="IT.CM.CMSEQ" Name="CMSEQ" DataType="integer" SASFieldName="CMSEQ">
        <Description>
          <TranslatedText xml:lang="en">Sequence Number</TranslatedText>
        </Description>
        <def:Origin Type="Derived"/>
      </ItemDef>
      <ItemDef OID="IT.CM.CMTRT" Name="CMTRT" DataType="text" SASFieldName="CMTRT" Length="200">
        <Description>
          <TranslatedText xml:lang="en">Reported Name of Drug, Med, or Therapy</TranslatedText>
        </Description>
        <def:Origin Type="Collected"/>
      </ItemDef>
      <ItemDef OID="IT.CM.CMDECOD" Name="CMDECOD" DataType="text" SASFieldName="CMDECOD" Length="200">
        <Description>
          <TranslatedText xml:lang="en">Standardized Medication Name</TranslatedText>
        </Description>
        <def:Origin Type="Derived"/>
      </ItemDef>
      <ItemDef OID="IT.CM.CMINDC" Name="CMINDC" DataType="text" SASFieldName="CMINDC" Length="200">
        <Description>
          <TranslatedText xml:lang="en">Indication</TranslatedText>
        </Description>
        <def:Origin Type="Collected"/>
      </ItemDef>
      <ItemDef OID="IT.CM.CMSTDTC" Name="CMSTDTC" DataType="text" SASFieldName="CMSTDTC" Length="200">
        <Description>
          <TranslatedText xml:lang="en">Start Date/Time of Medication</TranslatedText>
        </Description>
        <def:Origin Type="Derived"/>
      </ItemDef>
      <ItemDef OID="IT.CM.CMENDTC" Name="CMENDTC" DataType="text" SASFieldName="CMENDTC" Length="200">
        <Description>
          <TranslatedText xml:lang="en">End Date/Time of Medication</TranslatedText>
        </Description>
        <def:Origin Type="Derived"/>
      </ItemDef>
      <ItemDef OID="IT.CO.STUDYID" Name="STUDYID" DataType="text" SASFieldName="STUDYID" Length="200">
        <Description>
          <TranslatedText xml:lang="en">Study Identifier</TranslatedText>
        </Description>
        <def:Origin Type="Derived"/>
      </ItemDef>
      <ItemDef OID="IT.CO.DOMAIN" Name="DOMAIN" DataType="text" SASFieldName="DOMAIN" Length="200">
        <Description>
          <TranslatedText xml:lang="en">Domain Abbreviation</TranslatedText>
        </Description>
        <def:Origin Type="Derived"/>
      </ItemDef>
      <ItemDef OID="IT.CO.USUBJID" Name="USUBJID" DataType="text" SASFieldName="USUBJID" Length="200">
        <Description>
          <TranslatedText xml:lang="en">Unique Subject Identifier</TranslatedText>
        </Description>
        <def:Origin Type="Derived"/>
      </ItemDef>
      <ItemDef OID="IT.CO.COSEQ" Name="COSEQ" DataType="integer" SASFieldName="COSEQ">
        <Description>
          <TranslatedText xml:lang="en">Sequence Number</TranslatedText>
        </Description>
        <def:Origin Type="Derived"/>
      </ItemDef>
      <ItemDef OID="IT.CO.COVAL" Name="COVAL" DataType="text" SASFieldName="COVAL" Length="200">
        <Description>
          <TranslatedText xml:lang="en">Comment</TranslatedText>
        </Description>
        <def:Origin Type="Collected"/>
      </ItemDef>
      <ItemDef OID="IT.CO.CODTC" Name="CODTC" DataType="text" SASFieldName="CODTC" Length="200">
        <Description>
          <TranslatedText xml:lang="en">Date/Time of Comment</TranslatedText>
        </Description>
        <def:Origin Type="Derived"/>
      </ItemDef>
      <ItemDef OID="IT.DD.STUDYID" Name="STUDYID" DataType="text" SASFieldName="STUDYID" Length="200">
        <Description>
          <TranslatedText xml:lang="en">Study Identifier</TranslatedText>
        </Description>
        <def:Origin Type="Derived"/>
      </ItemDef>
      <ItemDef OID="IT.DD.DOMAIN" Name="DOMAIN" DataType="text" SASFieldName="DOMAIN" Length="200">
        <Description>
          <TranslatedText xml:lang="en">Domain Abbreviation</TranslatedText>
        </Description>
        <def:Origin Type="Derived"/>
      </ItemDef>
      <ItemDef OID="IT.DD.USUBJID" Name="USUBJID" DataType="text" SASFieldName="USUBJID" Length="200">
        <Description>
          <TranslatedText xml:lang="en">Unique Subject Identifier</TranslatedText>
        </Description>
        <def:Origin Type="Derived"/>
      </ItemDef>
      <ItemDef OID="IT.DD.DDSEQ" Name="DDSEQ" DataType="integer" SASFieldName="DDSEQ">
        <Description>
          <TranslatedText xml:lang="en">Sequence Number</TranslatedText>
        </Description>
        <def:Origin Type="Derived"/>
      </ItemDef>
      <ItemDef OID="IT.DD.DDTESTCD" Name="DDTESTCD" DataType="text" SASFieldName="DDTESTCD" Length="200">
        <Description>
          <TranslatedText xml:lang="en">Death Detail Short Name</TranslatedText>
        </Description>
        <def:Origin Type="Collected"/>
      </ItemDef>
      <ItemDef OID="IT.DD.DDTEST" Name="DDTEST" DataType="text" SASFieldName="DDTEST" Length="200">
        <Description>
          <TranslatedText xml:lang="en">Death Detail Term</TranslatedText>
        </Description>
        <def:Origin Type="Derived"/>
      </ItemDef>
      <ItemDef OID="IT.DD.DDORRES" Name="DDORRES" DataType="text" SASFieldName="DDORRES" Length="200">
        <Description>
          <TranslatedText xml:lang="en">Result or Finding in Original Units</TranslatedText>
        </Description>
        <def:Origin Type="Collected"/>
      </ItemDef>
      <ItemDef OID="IT.DD.DDSTRESC" Name="DDSTRESC" DataType="text" SASFieldName="DDSTRESC" Length="200">
        <Description>
          <TranslatedText xml:lang="en">Character Result/Finding in Std Format</TranslatedText>
        </Description>
        <def:Origin Type="Collected"/>
      </ItemDef>
      <ItemDef OID="IT.DD.DDDTC" Name="DDDTC" DataType="text" SASFieldName="DDDTC" Length="200">
        <Description>
          <TranslatedText xml:lang="en">Date/Time of Death Assessment</TranslatedText>
        </Description>
        <def:Origin Type="Derived"/>
      </ItemDef>
      <ItemDef OID="IT.DM.STUDYID" Name="STUDYID" DataType="text" SASFieldName="STUDYID" Length="200">
        <Description>
          <TranslatedText xml:lang="en">Study Identifier</TranslatedText>
        </Description>
        <def:Origin Type="Derived"/>
      </ItemDef>
      <ItemDef OID="IT.DM.DOMAIN" Name="DOMAIN" DataType="text" SASFieldName="DOMAIN" Length="200">
        <Description>
          <TranslatedText xml:lang="en">Domain Abbreviation</TranslatedText>
        </Description>
        <def:Origin Type="Derived"/>
      </ItemDef>
      <ItemDef OID="IT.DM.USUBJID" Name="USUBJID" DataType="text" SASFieldName="USUBJID" Length="200">
        <Description>
          <TranslatedText xml:lang="en">Unique Subject Identifier</TranslatedText>
        </Description>
        <def:Origin Type="Derived"/>
      </ItemDef>
      <ItemDef OID="IT.DM.SUBJID" Name="SUBJID" DataType="text" SASFieldName="SUBJID" Length="200">
        <Description>
          <TranslatedText xml:lang="en">Subject Identifier for the Study</TranslatedText>
        </Description>
        <def:Origin Type="Collected"/>
      </ItemDef>
      <ItemDef OID="IT.DM.RFSTDTC" Name="RFSTDTC" DataType="text" SASFieldName="RFSTDTC" Length="200">
        <Description>
          <TranslatedText xml:lang="en">Subject Reference Start Date/Time</TranslatedText>
        </Description>
        <def:Origin Type="Derived"/>
      </ItemDef>
      <ItemDef OID="IT.DM.RFENDTC" Name="RFENDTC" DataType="text" SASFieldName="RFENDTC" Length="200">
        <Description>
          <TranslatedText xml:lang="en">Subject Reference End Date/Time</TranslatedText>
        </Description>
        <def:Origin Type="Derived"/>
      </ItemDef>
      <ItemDef OID="IT.DM.RFXSTDTC" Name="RFXSTDTC" DataType="text" SASFieldName="RFXSTDTC" Length="200">
        <Description>
          <TranslatedText xml:lang="en">Date/Time of First Study Treatment</TranslatedText>
        </Description>
        <def:Origin Type="Derived"/>
      </ItemDef>
      <ItemDef OID="IT.DM.RFXENDTC" Name="RFXENDTC" DataType="text" SASFieldName="RFXENDTC" Length="200">
        <Description>
          <TranslatedText xml:lang="en">Date/Time of Last Study Treatment</TranslatedText>
        </Description>
        <def:Origin Type="Derived"/>
      </ItemDef>
      <ItemDef OID="IT.DM.RFICDTC" Name="RFICDTC" DataType="text" SASFieldName="RFICDTC" Length="200">
        <Description>
          <TranslatedText xml:lang="en">Date/Time of Informed Consent</TranslatedText>
        </Description>
        <def:Origin Type="Derived"/>
      </ItemDef>
      <ItemDef OID="IT.DM.RFPENDTC" Name="RFPENDTC" DataType="text" SASFieldName="RFPENDTC" Length="200">
        <Description>
          <TranslatedText xml:lang="en">Date/Time of End of Participation</TranslatedText>
        </Description>
        <def:Origin Type="Derived"/>
      </ItemDef>
      <ItemDef OID="IT.DM.DTHDTC" Name="DTHDTC" DataType="text" SASFieldName="DTHDTC" Length="200">
        <Description>
          <TranslatedText xml:lang="en">Date/Time of Death</TranslatedText>
        </Description>
        <def:Origin Type="Derived"/>
      </ItemDef>
      <ItemDef OID="IT.DM.DTHFL" Name="DTHFL" DataType="text" SASFieldName="DTHFL" Length="200">
        <Description>
          <TranslatedText xml:lang="en">Subject Death Flag</TranslatedText>
        </Description>
        <CodeListRef CodeListOID="CL.NY"/>
        <def:Origin Type="Collected"/>
      </ItemDef>
      <ItemDef OID="IT.DM.SITEID" Name="SITEID" DataType="text" SASFieldName="SITEID" Length="200">
        <Description>
          <TranslatedText xml:lang="en">Study Site Identifier</TranslatedText>
        </Description>
        <def:Origin Type="Collected"/>
      </ItemDef>
      <ItemDef OID="IT.DM.AGE" Name="AGE" DataType="integer" SASFieldName="AGE">
        <Description>
          <TranslatedText xml:lang="en">Age</TranslatedText>
        </Description>
        <def:Origin Type="Collected"/>
      </ItemDef>
      <ItemDef OID="IT.DM.AGEU" Name="AGEU" DataType="text" SASFieldName="AGEU" Length="200">
        <Description>
          <TranslatedText xml:lang="en">Age Units</TranslatedText>
        </Description>
        <def:Origin Type="Derived"/>
      </ItemDef>
      <ItemDef OID="IT.DM.SEX" Name="SEX" DataType="text" SASFieldName="SEX" Length="200">
        <Description>
          <TranslatedText xml:lang="en">Sex</TranslatedText>
        </Description>
        <CodeListRef CodeListOID="CL.SEX"/>
        <def:Origin Type="Collected"/>
      </ItemDef>
      <ItemDef OID="IT.DM.RACE" Name="RACE" DataType="text" SASFieldName="RACE" Length="200">
        <Description>
          <TranslatedText xml:lang="en">Race</TranslatedText>
        </Description>
        <CodeListRef CodeListOID="CL.RACE"/>
        <def:Origin Type="Collected"/>
      </ItemDef>
      <ItemDef OID="IT.DM.ARMCD" Name="ARMCD" DataType="text" SASFieldName="ARMCD" Length="200">
        <Description>
          <TranslatedText xml:lang="en">Planned Arm Code</TranslatedText>
        </Description>
        <def:Origin Type="Collected"/>
      </ItemDef>
      <ItemDef OID="IT.DM.ARM" Name="ARM" DataType="text" SASFieldName="ARM" Length="200">
        <Description>
          <TranslatedText xml:lang="en">Description of Planned Arm</TranslatedText>
        </Description>
        <def:Origin Type="Derived"/>
      </ItemDef>
      <ItemDef OID="IT.DM.ACTARMCD" Name="ACTARMCD" DataType="text" SASFieldName="ACTARMCD" Length="200">
        <Description>
          <TranslatedText xml:lang="en">Actual Arm Code</TranslatedText>
        </Description>
        <def:Origin Type="Collected"/>
      </ItemDef>
      <ItemDef OID="IT.DM.ACTARM" Name="ACTARM" DataType="text" SASFieldName="ACTARM" Length="200">
        <Description>
          <TranslatedText xml:lang="en">Description of Actual Arm</TranslatedText>
        </Description>
        <def:Origin Type="Derived"/>
      </ItemDef>
      <ItemDef OID="IT.DM.COUNTRY" Name="COUNTRY" DataType="text" SASFieldName="COUNTRY" Length="200">
        <Description>
          <TranslatedText xml:lang="en">Country</TranslatedText>
        </Description>
        <def:Origin Type="Collected"/>
      </ItemDef>
      <ItemDef OID="IT.DS.STUDYID" Name="STUDYID" DataType="text" SASFieldName="STUDYID" Length="200">
        <Description>
          <TranslatedText xml:lang="en">Study Identifier</TranslatedText>
        </Description>
        <def:Origin Type="Derived"/>
      </ItemDef>
      <ItemDef OID="IT.DS.DOMAIN" Name="DOMAIN" DataType="text" SASFieldName="DOMAIN" Length="200">
        <Description>
          <TranslatedText xml:lang="en">Domain Abbreviation</TranslatedText>
        </Description>
        <def:Origin Type="Derived"/>
      </ItemDef>
      <ItemDef OID="IT.DS.USUBJID" Name="USUBJID" DataType="text" SASFieldName="USUBJID" Length="200">
        <Description>
          <TranslatedText xml:lang="en">Unique Subject Identifier</TranslatedText>
        </Description>
        <def:Origin Type="Derived"/>
      </ItemDef>
      <ItemDef OID="IT.DS.DSSEQ" Name="DSSEQ" DataType="integer" SASFieldName="DSSEQ">
        <Description>
          <TranslatedText xml:lang="en">Sequence Number</TranslatedText>
        </Description>
        <def:Origin Type="Derived"/>
      </ItemDef>
      <ItemDef OID="IT.DS.DSTERM" Name="DSTERM" DataType="text" SASFieldName="DSTERM" Length="200">
        <Description>
          <TranslatedText xml:lang="en">Reported Term for the Disposition Event</TranslatedText>
        </Description>
        <def:Origin Type="Collected"/>
      </ItemDef>
      <ItemDef OID="IT.DS.DSDECOD" Name="DSDECOD" DataType="text" SASFieldName="DSDECOD" Length="200">
        <Description>
          <TranslatedText xml:lang="en">Standardized Disposition Term</TranslatedText>
        </Description>
        <def:Origin Type="Derived"/>
      </ItemDef>
      <ItemDef OID="IT.DS.DSCAT" Name="DSCAT" DataType="text" SASFieldName="DSCAT" Length="200">
        <Description>
          <TranslatedText xml:lang="en">Category for Disposition Event</TranslatedText>
        </Description>
        <def:Origin Type="Collected"/>
      </ItemDef>
      <ItemDef OID="IT.DS.DSSTDTC" Name="DSSTDTC" DataType="text" SASFieldName="DSSTDTC" Length="200">
        <Description>
          <TranslatedText xml:lang="en">Start Date/Time of Disposition Event</TranslatedText>
        </Description>
        <def:Origin Type="Derived"/>
      </ItemDef>
      <ItemDef OID="IT.DV.STUDYID" Name="STUDYID" DataType="text" SASFieldName="STUDYID" Length="200">
        <Description>
          <TranslatedText xml:lang="en">Study Identifier</TranslatedText>
        </Description>
        <def:Origin Type="Derived"/>
      </ItemDef>
      <ItemDef OID="IT.DV.DOMAIN" Name="DOMAIN" DataType="text" SASFieldName="DOMAIN" Length="200">
        <Description>
          <TranslatedText xml:lang="en">Domain Abbreviation</TranslatedText>
        </Description>
        <def:Origin Type="Derived"/>
      </ItemDef>
      <ItemDef OID="IT.DV.USUBJID" Name="USUBJID" DataType="text" SASFieldName="USUBJID" Length="200">
        <Description>
          <TranslatedText xml:lang="en">Unique Subject Identifier</TranslatedText>
        </Description>
        <def:Origin Type="Derived"/>
      </ItemDef>
      <ItemDef OID="IT.DV.DVSEQ" Name="DVSEQ" DataType="integer" SASFieldName="DVSEQ">
        <Description>
          <TranslatedText xml:lang="en">Sequence Number</TranslatedText>
        </Description>
        <def:Origin Type="Derived"/>
      </ItemDef>
      <ItemDef OID="IT.DV.DVTERM" Name="DVTERM" DataType="text" SASFieldName="DVTERM" Length="200">
        <Description>
          <TranslatedText xml:lang="en">Protocol Deviation Term</TranslatedText>
        </Description>
        <def:Origin Type="Collected"/>
      </ItemDef>
      <ItemDef OID="IT.DV.DVSTDTC" Name="DVSTDTC" DataType="text" SASFieldName="DVSTDTC" Length="200">
        <Description>
          <TranslatedText xml:lang="en">Start Date/Time of Deviation</TranslatedText>
        </Description>
        <def:Origin Type="Derived"/>
      </ItemDef>
      <ItemDef OID="IT.EC.STUDYID" Name="STUDYID" DataType="text" SASFieldName="STUDYID" Length="200">
        <Description>
          <TranslatedText xml:lang="en">Study Identifier</TranslatedText>
        </Description>
        <def:Origin Type="Derived"/>
      </ItemDef>
      <ItemDef OID="IT.EC.DOMAIN" Name="DOMAIN" DataType="text" SASFieldName="DOMAIN" Length="200">
        <Description>
          <TranslatedText xml:lang="en">Domain Abbreviation</TranslatedText>
        </Description>
        <def:Origin Type="Derived"/>
      </ItemDef>
      <ItemDef OID="IT.EC.USUBJID" Name="USUBJID" DataType="text" SASFieldName="USUBJID" Length="200">
        <Description>
          <TranslatedText xml:lang="en">Unique Subject Identifier</TranslatedText>
        </Description>
        <def:Origin Type="Derived"/>
      </ItemDef>
      <ItemDef OID="IT.EC.ECSEQ" Name="ECSEQ" DataType="integer" SASFieldName="ECSEQ">
        <Description>
          <TranslatedText xml:lang="en">Sequence Number</TranslatedText>
        </Description>
        <def:Origin Type="Derived"/>
      </ItemDef>
      <ItemDef OID="IT.EC.ECTRT" Name="ECTRT" DataType="text" SASFieldName="ECTRT" Length="200">
        <Description>
          <TranslatedText xml:lang="en">Name of Treatment</TranslatedText>
        </Description>
        <def:Origin Type="Collected"/>
      </ItemDef>
      <ItemDef OID="IT.EC.ECDOSE" Name="ECDOSE" DataType="integer" SASFieldName="ECDOSE">
        <Description>
          <TranslatedText xml:lang="en">Dose per Administration</TranslatedText>
        </Description>
        <def:Origin Type="Collected"/>
      </ItemDef>
      <ItemDef OID="IT.EC.ECDOSU" Name="ECDOSU" DataType="text" SASFieldName="ECDOSU" Length="200">
        <Description>
          <TranslatedText xml:lang="en">Dose Units</TranslatedText>
        </Description>
        <def:Origin Type="Derived"/>
      </ItemDef>
      <ItemDef OID="IT.EC.ECDOSFRM" Name="ECDOSFRM" DataType="text" SASFieldName="ECDOSFRM" Length="200">
        <Description>
          <TranslatedText xml:lang="en">Dose Form</TranslatedText>
        </Description>
        <def:Origin Type="Derived"/>
      </ItemDef>
      <ItemDef OID="IT.EC.ECROUTE" Name="ECROUTE" DataType="text" SASFieldName="ECROUTE" Length="200">
        <Description>
          <TranslatedText xml:lang="en">Route of Administration</TranslatedText>
        </Description>
        <def:Origin Type="Derived"/>
      </ItemDef>
      <ItemDef OID="IT.EC.ECSTDTC" Name="ECSTDTC" DataType="text" SASFieldName="ECSTDTC" Length="200">
        <Description>
          <TranslatedText xml:lang="en">Start Date/Time of Treatment</TranslatedText>
        </Description>
        <def:Origin Type="Derived"/>
      </ItemDef>
      <ItemDef OID="IT.EC.ECENDTC" Name="ECENDTC" DataType="text" SASFieldName="ECENDTC" Length="200">
        <Description>
          <TranslatedText xml:lang="en">End Date/Time of Treatment</TranslatedText>
        </Description>
        <def:Origin Type="Derived"/>
      </ItemDef>
      <ItemDef OID="IT.EC.VISITNUM" Name="VISITNUM" DataType="integer" SASFieldName="VISITNUM">
        <Description>
          <TranslatedText xml:lang="en">Visit Number</TranslatedText>
        </Description>
        <def:Origin Type="Derived"/>
      </ItemDef>
      <ItemDef OID="IT.EC.VISIT" Name="VISIT" DataType="text" SASFieldName="VISIT" Length="200">
        <Description>
          <TranslatedText xml:lang="en">Visit Name</TranslatedText>
        </Description>
        <def:Origin Type="Derived"/>
      </ItemDef>
      <ItemDef OID="IT.EX.STUDYID" Name="STUDYID" DataType="text" SASFieldName="STUDYID" Length="200">
        <Description>
          <TranslatedText xml:lang="en">Study Identifier</TranslatedText>
        </Description>
        <def:Origin Type="Derived"/>
      </ItemDef>
      <ItemDef OID="IT.EX.DOMAIN" Name="DOMAIN" DataType="text" SASFieldName="DOMAIN" Length="200">
        <Description>
          <TranslatedText xml:lang="en">Domain Abbreviation</TranslatedText>
        </Description>
        <def:Origin Type="Derived"/>
      </ItemDef>
      <ItemDef OID="IT.EX.USUBJID" Name="USUBJID" DataType="text" SASFieldName="USUBJID" Length="200">
        <Description>
          <TranslatedText xml:lang="en">Unique Subject Identifier</TranslatedText>
        </Description>
        <def:Origin Type="Derived"/>
      </ItemDef>
      <ItemDef OID="IT.EX.EXSEQ" Name="EXSEQ" DataType="integer" SASFieldName="EXSEQ">
        <Description>
          <TranslatedText xml:lang="en">Sequence Number</TranslatedText>
        </Description>
        <def:Origin Type="Derived"/>
      </ItemDef>
      <ItemDef OID="IT.EX.EXTRT" Name="EXTRT" DataType="text" SASFieldName="EXTRT" Length="200">
        <Description>
          <TranslatedText xml:lang="en">Name of Treatment</TranslatedText>
        </Description>
        <def:Origin Type="Collected"/>
      </ItemDef>
      <ItemDef OID="IT.EX.EXDOSE" Name="EXDOSE" DataType="integer" SASFieldName="EXDOSE">
        <Description>
          <TranslatedText xml:lang="en">Dose per Administration</TranslatedText>
        </Description>
        <def:Origin Type="Collected"/>
      </ItemDef>
      <ItemDef OID="IT.EX.EXDOSU" Name="EXDOSU" DataType="text" SASFieldName="EXDOSU" Length="200">
        <Description>
          <TranslatedText xml:lang="en">Dose Units</TranslatedText>
        </Description>
        <def:Origin Type="Derived"/>
      </ItemDef>
      <ItemDef OID="IT.EX.EXDOSFRM" Name="EXDOSFRM" DataType="text" SASFieldName="EXDOSFRM" Length="200">
        <Description>
          <TranslatedText xml:lang="en">Dose Form</TranslatedText>
        </Description>
        <def:Origin Type="Derived"/>
      </ItemDef>
      <ItemDef OID="IT.EX.EXDOSFRQ" Name="EXDOSFRQ" DataType="text" SASFieldName="EXDOSFRQ" Length="200">
        <Description>
          <TranslatedText xml:lang="en">Dosing Frequency per Interval</TranslatedText>
        </Description>
        <def:Origin Type="Derived"/>
      </ItemDef>
      <ItemDef OID="IT.EX.EXROUTE" Name="EXROUTE" DataType="text" SASFieldName="EXROUTE" Length="200">
        <Description>
          <TranslatedText xml:lang="en">Route of Administration</TranslatedText>
        </Description>
        <def:Origin Type="Derived"/>
      </ItemDef>
      <ItemDef OID="IT.EX.EXSTDTC" Name="EXSTDTC" DataType="text" SASFieldName="EXSTDTC" Length="200">
        <Description>
          <TranslatedText xml:lang="en">Start Date/Time of Treatment</TranslatedText>
        </Description>
        <def:Origin Type="Derived"/>
      </ItemDef>
      <ItemDef OID="IT.EX.EXENDTC" Name="EXENDTC" DataType="text" SASFieldName="EXENDTC" Length="200">
        <Description>
          <TranslatedText xml:lang="en">End Date/Time of Treatment</TranslatedText>
        </Description>
        <def:Origin Type="Derived"/>
      </ItemDef>
      <ItemDef OID="IT.FA.STUDYID" Name="STUDYID" DataType="text" SASFieldName="STUDYID" Length="200">
        <Description>
          <TranslatedText xml:lang="en">Study Identifier</TranslatedText>
        </Description>
        <def:Origin Type="Derived"/>
      </ItemDef>
      <ItemDef OID="IT.FA.DOMAIN" Name="DOMAIN" DataType="text" SASFieldName="DOMAIN" Length="200">
        <Description>
          <TranslatedText xml:lang="en">Domain Abbreviation</TranslatedText>
        </Description>
        <def:Origin Type="Derived"/>
      </ItemDef>
      <ItemDef OID="IT.FA.USUBJID" Name="USUBJID" DataType="text" SASFieldName="USUBJID" Length="200">
        <Description>
          <TranslatedText xml:lang="en">Unique Subject Identifier</TranslatedText>
        </Description>
        <def:Origin Type="Derived"/>
      </ItemDef>
      <ItemDef OID="IT.FA.FASEQ" Name="FASEQ" DataType="integer" SASFieldName="FASEQ">
        <Description>
          <TranslatedText xml:lang="en">Sequence Number</TranslatedText>
        </Description>
        <def:Origin Type="Derived"/>
      </ItemDef>
      <ItemDef OID="IT.FA.FATESTCD" Name="FATESTCD" DataType="text" SASFieldName="FATESTCD" Length="200">
        <Description>
          <TranslatedText xml:lang="en">Findings About Test Short Name</TranslatedText>
        </Description>
        <def:Origin Type="Collected"/>
      </ItemDef>
      <ItemDef OID="IT.FA.FATEST" Name="FATEST" DataType="text" SASFieldName="FATEST" Length="200">
        <Description>
          <TranslatedText xml:lang="en">Findings About Test Name</TranslatedText>
        </Description>
        <def:Origin Type="Derived"/>
      </ItemDef>
      <ItemDef OID="IT.FA.FAOBJ" Name="FAOBJ" DataType="text" SASFieldName="FAOBJ" Length="200">
        <Description>
          <TranslatedText xml:lang="en">Object of Finding About</TranslatedText>
        </Description>
        <def:Origin Type="Collected"/>
      </ItemDef>
      <ItemDef OID="IT.FA.FAORRES" Name="FAORRES" DataType="text" SASFieldName="FAORRES" Length="200">
        <Description>
          <TranslatedText xml:lang="en">Result or Finding in Original Units</TranslatedText>
        </Description>
        <def:Origin Type="Collected"/>
      </ItemDef>
      <ItemDef OID="IT.FA.FASTRESC" Name="FASTRESC" DataType="text" SASFieldName="FASTRESC" Length="200">
        <Description>
          <TranslatedText xml:lang="en">Character Result/Finding in Std Format</TranslatedText>
        </Description>
        <def:Origin Type="Collected"/>
      </ItemDef>
      <ItemDef OID="IT.FA.FADTC" Name="FADTC" DataType="text" SASFieldName="FADTC" Length="200">
        <Description>
          <TranslatedText xml:lang="en">Date/Time of Collection</TranslatedText>
        </Description>
        <def:Origin Type="Derived"/>
      </ItemDef>
      <ItemDef OID="IT.IS.STUDYID" Name="STUDYID" DataType="text" SASFieldName="STUDYID" Length="200">
        <Description>
          <TranslatedText xml:lang="en">Study Identifier</TranslatedText>
        </Description>
        <def:Origin Type="Derived"/>
      </ItemDef>
      <ItemDef OID="IT.IS.DOMAIN" Name="DOMAIN" DataType="text" SASFieldName="DOMAIN" Length="200">
        <Description>
          <TranslatedText xml:lang="en">Domain Abbreviation</TranslatedText>
        </Description>
        <def:Origin Type="Derived"/>
      </ItemDef>
      <ItemDef OID="IT.IS.USUBJID" Name="USUBJID" DataType="text" SASFieldName="USUBJID" Length="200">
        <Description>
          <TranslatedText xml:lang="en">Unique Subject Identifier</TranslatedText>
        </Description>
        <def:Origin Type="Derived"/>
      </ItemDef>
      <ItemDef OID="IT.IS.ISSEQ" Name="ISSEQ" DataType="integer" SASFieldName="ISSEQ">
        <Description>
          <TranslatedText xml:lang="en">Sequence Number</TranslatedText>
        </Description>
        <def:Origin Type="Derived"/>
      </ItemDef>
      <ItemDef OID="IT.IS.ISTESTCD" Name="ISTESTCD" DataType="text" SASFieldName="ISTESTCD" Length="200">
        <Description>
          <TranslatedText xml:lang="en">Immunogenicity Test Short Name</TranslatedText>
        </Description>
        <def:Origin Type="Collected"/>
      </ItemDef>
      <ItemDef OID="IT.IS.ISTEST" Name="ISTEST" DataType="text" SASFieldName="ISTEST" Length="200">
        <Description>
          <TranslatedText xml:lang="en">Immunogenicity Test Name</TranslatedText>
        </Description>
        <def:Origin Type="Derived"/>
      </ItemDef>
      <ItemDef OID="IT.IS.ISORRES" Name="ISORRES" DataType="text" SASFieldName="ISORRES" Length="200">
        <Description>
          <TranslatedText xml:lang="en">Result or Finding in Original Units</TranslatedText>
        </Description>
        <def:Origin Type="Collected"/>
      </ItemDef>
      <ItemDef OID="IT.IS.ISSTRESC" Name="ISSTRESC" DataType="text" SASFieldName="ISSTRESC" Length="200">
        <Description>
          <TranslatedText xml:lang="en">Character Result/Finding in Std Format</TranslatedText>
        </Description>
        <def:Origin Type="Collected"/>
      </ItemDef>
      <ItemDef OID="IT.IS.ISSPEC" Name="ISSPEC" DataType="text" SASFieldName="ISSPEC" Length="200">
        <Description>
          <TranslatedText xml:lang="en">Specimen Material Type</TranslatedText>
        </Description>
        <def:Origin Type="Collected"/>
      </ItemDef>
      <ItemDef OID="IT.IS.ISDTC" Name="ISDTC" DataType="text" SASFieldName="ISDTC" Length="200">
        <Description>
          <TranslatedText xml:lang="en">Date/Time of Specimen Collection</TranslatedText>
        </Description>
        <def:Origin Type="Derived"/>
      </ItemDef>
      <ItemDef OID="IT.IS.VISITNUM" Name="VISITNUM" DataType="integer" SASFieldName="VISITNUM">
        <Description>
          <TranslatedText xml:lang="en">Visit Number</TranslatedText>
        </Description>
        <def:Origin Type="Derived"/>
      </ItemDef>
      <ItemDef OID="IT.IS.VISIT" Name="VISIT" DataType="text" SASFieldName="VISIT" Length="200">
        <Description>
          <TranslatedText xml:lang="en">Visit Name</TranslatedText>
        </Description>
        <def:Origin Type="Derived"/>
      </ItemDef>
      <ItemDef OID="IT.LB.STUDYID" Name="STUDYID" DataType="text" SASFieldName="STUDYID" Length="200">
        <Description>
          <TranslatedText xml:lang="en">Study Identifier</TranslatedText>
        </Description>
        <def:Origin Type="Derived"/>
      </ItemDef>
      <ItemDef OID="IT.LB.DOMAIN" Name="DOMAIN" DataType="text" SASFieldName="DOMAIN" Length="200">
        <Description>
          <TranslatedText xml:lang="en">Domain Abbreviation</TranslatedText>
        </Description>
        <def:Origin Type="Derived"/>
      </ItemDef>
      <ItemDef OID="IT.LB.USUBJID" Name="USUBJID" DataType="text" SASFieldName="USUBJID" Length="200">
        <Description>
          <TranslatedText xml:lang="en">Unique Subject Identifier</TranslatedText>
        </Description>
        <def:Origin Type="Derived"/>
      </ItemDef>
      <ItemDef OID="IT.LB.LBSEQ" Name="LBSEQ" DataType="integer" SASFieldName="LBSEQ">
        <Description>
          <TranslatedText xml:lang="en">Sequence Number</TranslatedText>
        </Description>
        <def:Origin Type="Derived"/>
      </ItemDef>
      <ItemDef OID="IT.LB.LBTESTCD" Name="LBTESTCD" DataType="text" SASFieldName="LBTESTCD" Length="200">
        <Description>
          <TranslatedText xml:lang="en">Lab Test or Examination Short Name</TranslatedText>
        </Description>
        <def:Origin Type="Collected"/>
      </ItemDef>
      <ItemDef OID="IT.LB.LBTEST" Name="LBTEST" DataType="text" SASFieldName="LBTEST" Length="200">
        <Description>
          <TranslatedText xml:lang="en">Lab Test or Examination Name</TranslatedText>
        </Description>
        <def:Origin Type="Derived"/>
      </ItemDef>
      <ItemDef OID="IT.LB.LBCAT" Name="LBCAT" DataType="text" SASFieldName="LBCAT" Length="200">
        <Description>
          <TranslatedText xml:lang="en">Category for Lab Test</TranslatedText>
        </Description>
        <def:Origin Type="Collected"/>
      </ItemDef>
      <ItemDef OID="IT.LB.LBORRES" Name="LBORRES" DataType="text" SASFieldName="LBORRES" Length="200">
        <Description>
          <TranslatedText xml:lang="en">Result or Finding in Original Units</TranslatedText>
        </Description>
        <def:Origin Type="Collected"/>
      </ItemDef>
      <ItemDef OID="IT.LB.LBORRESU" Name="LBORRESU" DataType="text" SASFieldName="LBORRESU" Length="200">
        <Description>
          <TranslatedText xml:lang="en">Original Units</TranslatedText>
        </Description>
        <def:Origin Type="Derived"/>
      </ItemDef>
      <ItemDef OID="IT.LB.LBORNRLO" Name="LBORNRLO" DataType="text" SASFieldName="LBORNRLO" Length="200">
        <Description>
          <TranslatedText xml:lang="en">Reference Range Lower Limit in Orig Unit</TranslatedText>
        </Description>
        <def:Origin Type="Derived"/>
      </ItemDef>
      <ItemDef OID="IT.LB.LBORNRHI" Name="LBORNRHI" DataType="text" SASFieldName="LBORNRHI" Length="200">
        <Description>
          <TranslatedText xml:lang="en">Reference Range Upper Limit in Orig Unit</TranslatedText>
        </Description>
        <def:Origin Type="Derived"/>
      </ItemDef>
      <ItemDef OID="IT.LB.LBSTRESC" Name="LBSTRESC" DataType="text" SASFieldName="LBSTRESC" Length="200">
        <Description>
          <TranslatedText xml:lang="en">Character Result/Finding in Std Format</TranslatedText>
        </Description>
        <def:Origin Type="Collected"/>
      </ItemDef>
      <ItemDef OID="IT.LB.LBSTRESN" Name="LBSTRESN" DataType="integer" SASFieldName="LBSTRESN">
        <Description>
          <TranslatedText xml:lang="en">Numeric Result/Finding in Standard Units</TranslatedText>
        </Description>
        <def:Origin Type="Collected"/>
      </ItemDef>
      <ItemDef OID="IT.LB.LBSTRESU" Name="LBSTRESU" DataType="text" SASFieldName="LBSTRESU" Length="200">
        <Description>
          <TranslatedText xml:lang="en">Standard Units</TranslatedText>
        </Description>
        <def:Origin Type="Derived"/>
      </ItemDef>
      <ItemDef OID="IT.LB.LBSTNRLO" Name="LBSTNRLO" DataType="integer" SASFieldName="LBSTNRLO">
        <Description>
          <TranslatedText xml:lang="en">Reference Range Lower Limit-Std Units</TranslatedText>
        </Description>
        <def:Origin Type="Derived"/>
      </ItemDef>
      <ItemDef OID="IT.LB.LBSTNRHI" Name="LBSTNRHI" DataType="integer" SASFieldName="LBSTNRHI">
        <Description>
          <TranslatedText xml:lang="en">Reference Range Upper Limit-Std Units</TranslatedText>
        </Description>
        <def:Origin Type="Derived"/>
      </ItemDef>
      <ItemDef OID="IT.LB.LBNRIND" Name="LBNRIND" DataType="text" SASFieldName="LBNRIND" Length="200">
        <Description>
          <TranslatedText xml:lang="en">Reference Range Indicator</TranslatedText>
        </Description>
        <def:Origin Type="Derived"/>
      </ItemDef>
      <ItemDef OID="IT.LB.LBDTC" Name="LBDTC" DataType="text" SASFieldName="LBDTC" Length="200">
        <Description>
          <TranslatedText xml:lang="en">Date/Time of Specimen Collection</TranslatedText>
        </Description>
        <def:Origin Type="Derived"/>
      </ItemDef>
      <ItemDef OID="IT.LB.VISITNUM" Name="VISITNUM" DataType="integer" SASFieldName="VISITNUM">
        <Description>
          <TranslatedText xml:lang="en">Visit Number</TranslatedText>
        </Description>
        <def:Origin Type="Derived"/>
      </ItemDef>
      <ItemDef OID="IT.LB.VISIT" Name="VISIT" DataType="text" SASFieldName="VISIT" Length="200">
        <Description>
          <TranslatedText xml:lang="en">Visit Name</TranslatedText>
        </Description>
        <def:Origin Type="Derived"/>
      </ItemDef>
      <ItemDef OID="IT.MH.STUDYID" Name="STUDYID" DataType="text" SASFieldName="STUDYID" Length="200">
        <Description>
          <TranslatedText xml:lang="en">Study Identifier</TranslatedText>
        </Description>
        <def:Origin Type="Derived"/>
      </ItemDef>
      <ItemDef OID="IT.MH.DOMAIN" Name="DOMAIN" DataType="text" SASFieldName="DOMAIN" Length="200">
        <Description>
          <TranslatedText xml:lang="en">Domain Abbreviation</TranslatedText>
        </Description>
        <def:Origin Type="Derived"/>
      </ItemDef>
      <ItemDef OID="IT.MH.USUBJID" Name="USUBJID" DataType="text" SASFieldName="USUBJID" Length="200">
        <Description>
          <TranslatedText xml:lang="en">Unique Subject Identifier</TranslatedText>
        </Description>
        <def:Origin Type="Derived"/>
      </ItemDef>
      <ItemDef OID="IT.MH.MHSEQ" Name="MHSEQ" DataType="integer" SASFieldName="MHSEQ">
        <Description>
          <TranslatedText xml:lang="en">Sequence Number</TranslatedText>
        </Description>
        <def:Origin Type="Derived"/>
      </ItemDef>
      <ItemDef OID="IT.MH.MHTERM" Name="MHTERM" DataType="text" SASFieldName="MHTERM" Length="200">
        <Description>
          <TranslatedText xml:lang="en">Reported Term for the Medical History</TranslatedText>
        </Description>
        <def:Origin Type="Collected"/>
      </ItemDef>
      <ItemDef OID="IT.MH.MHDECOD" Name="MHDECOD" DataType="text" SASFieldName="MHDECOD" Length="200">
        <Description>
          <TranslatedText xml:lang="en">Dictionary-Derived Term</TranslatedText>
        </Description>
        <def:Origin Type="Derived"/>
      </ItemDef>
      <ItemDef OID="IT.MH.MHBODSYS" Name="MHBODSYS" DataType="text" SASFieldName="MHBODSYS" Length="200">
        <Description>
          <TranslatedText xml:lang="en">Body System or Organ Class</TranslatedText>
        </Description>
        <def:Origin Type="Derived"/>
      </ItemDef>
      <ItemDef OID="IT.MH.MHSTDTC" Name="MHSTDTC" DataType="text" SASFieldName="MHSTDTC" Length="200">
        <Description>
          <TranslatedText xml:lang="en">Start Date/Time of Medical History</TranslatedText>
        </Description>
        <def:Origin Type="Derived"/>
      </ItemDef>
      <ItemDef OID="IT.PC.STUDYID" Name="STUDYID" DataType="text" SASFieldName="STUDYID" Length="200">
        <Description>
          <TranslatedText xml:lang="en">Study Identifier</TranslatedText>
        </Description>
        <def:Origin Type="Derived"/>
      </ItemDef>
      <ItemDef OID="IT.PC.DOMAIN" Name="DOMAIN" DataType="text" SASFieldName="DOMAIN" Length="200">
        <Description>
          <TranslatedText xml:lang="en">Domain Abbreviation</TranslatedText>
        </Description>
        <def:Origin Type="Derived"/>
      </ItemDef>
      <ItemDef OID="IT.PC.USUBJID" Name="USUBJID" DataType="text" SASFieldName="USUBJID" Length="200">
        <Description>
          <TranslatedText xml:lang="en">Unique Subject Identifier</TranslatedText>
        </Description>
        <def:Origin Type="Derived"/>
      </ItemDef>
      <ItemDef OID="IT.PC.PCSEQ" Name="PCSEQ" DataType="integer" SASFieldName="PCSEQ">
        <Description>
          <TranslatedText xml:lang="en">Sequence Number</TranslatedText>
        </Description>
        <def:Origin Type="Derived"/>
      </ItemDef>
      <ItemDef OID="IT.PC.PCTESTCD" Name="PCTESTCD" DataType="text" SASFieldName="PCTESTCD" Length="200">
        <Description>
          <TranslatedText xml:lang="en">PK Concentration Test Short Name</TranslatedText>
        </Description>
        <def:Origin Type="Collected"/>
      </ItemDef>
      <ItemDef OID="IT.PC.PCTEST" Name="PCTEST" DataType="text" SASFieldName="PCTEST" Length="200">
        <Description>
          <TranslatedText xml:lang="en">PK Concentration Test Name</TranslatedText>
        </Description>
        <def:Origin Type="Derived"/>
      </ItemDef>
      <ItemDef OID="IT.PC.PCORRES" Name="PCORRES" DataType="text" SASFieldName="PCORRES" Length="200">
        <Description>
          <TranslatedText xml:lang="en">Result or Finding in Original Units</TranslatedText>
        </Description>
        <def:Origin Type="Collected"/>
      </ItemDef>
      <ItemDef OID="IT.PC.PCORRESU" Name="PCORRESU" DataType="text" SASFieldName="PCORRESU" Length="200">
        <Description>
          <TranslatedText xml:lang="en">Original Units</TranslatedText>
        </Description>
        <def:Origin Type="Derived"/>
      </ItemDef>
      <ItemDef OID="IT.PC.PCSTRESC" Name="PCSTRESC" DataType="text" SASFieldName="PCSTRESC" Length="200">
        <Description>
          <TranslatedText xml:lang="en">Character Result/Finding in Std Format</TranslatedText>
        </Description>
        <def:Origin Type="Collected"/>
      </ItemDef>
      <ItemDef OID="IT.PC.PCSTRESN" Name="PCSTRESN" DataType="integer" SASFieldName="PCSTRESN">
        <Description>
          <TranslatedText xml:lang="en">Numeric Result/Finding in Standard Units</TranslatedText>
        </Description>
        <def:Origin Type="Collected"/>
      </ItemDef>
      <ItemDef OID="IT.PC.PCSTRESU" Name="PCSTRESU" DataType="text" SASFieldName="PCSTRESU" Length="200">
        <Description>
          <TranslatedText xml:lang="en">Standard Units</TranslatedText>
        </Description>
        <def:Origin Type="Derived"/>
      </ItemDef>
      <ItemDef OID="IT.PC.PCSPEC" Name="PCSPEC" DataType="text" SASFieldName="PCSPEC" Length="200">
        <Description>
          <TranslatedText xml:lang="en">Specimen Material Type</TranslatedText>
        </Description>
        <def:Origin Type="Collected"/>
      </ItemDef>
      <ItemDef OID="IT.PC.PCDTC" Name="PCDTC" DataType="text" SASFieldName="PCDTC" Length="200">
        <Description>
          <TranslatedText xml:lang="en">Date/Time of Specimen Collection</TranslatedText>
        </Description>
        <def:Origin Type="Derived"/>
      </ItemDef>
      <ItemDef OID="IT.PC.PCTPT" Name="PCTPT" DataType="text" SASFieldName="PCTPT" Length="200">
        <Description>
          <TranslatedText xml:lang="en">Planned Time Point Name</TranslatedText>
        </Description>
        <def:Origin Type="Derived"/>
      </ItemDef>
      <ItemDef OID="IT.PC.PCTPTNUM" Name="PCTPTNUM" DataType="integer" SASFieldName="PCTPTNUM">
        <Description>
          <TranslatedText xml:lang="en">Planned Time Point Number</TranslatedText>
        </Description>
        <def:Origin Type="Derived"/>
      </ItemDef>
      <ItemDef OID="IT.PC.PCELTM" Name="PCELTM" DataType="text" SASFieldName="PCELTM" Length="200">
        <Description>
          <TranslatedText xml:lang="en">Planned Elapsed Time from Time Point Ref</TranslatedText>
        </Description>
        <def:Origin Type="Derived"/>
      </ItemDef>
      <ItemDef OID="IT.PC.PCTPTREF" Name="PCTPTREF" DataType="text" SASFieldName="PCTPTREF" Length="200">
        <Description>
          <TranslatedText xml:lang="en">Time Point Reference</TranslatedText>
        </Description>
        <def:Origin Type="Derived"/>
      </ItemDef>
      <ItemDef OID="IT.PC.PCRFTDTC" Name="PCRFTDTC" DataType="text" SASFieldName="PCRFTDTC" Length="200">
        <Description>
          <TranslatedText xml:lang="en">Date/Time of Reference Time Point</TranslatedText>
        </Description>
        <def:Origin Type="Derived"/>
      </ItemDef>
      <ItemDef OID="IT.PC.VISITNUM" Name="VISITNUM" DataType="integer" SASFieldName="VISITNUM">
        <Description>
          <TranslatedText xml:lang="en">Visit Number</TranslatedText>
        </Description>
        <def:Origin Type="Derived"/>
      </ItemDef>
      <ItemDef OID="IT.PC.VISIT" Name="VISIT" DataType="text" SASFieldName="VISIT" Length="200">
        <Description>
          <TranslatedText xml:lang="en">Visit Name</TranslatedText>
        </Description>
        <def:Origin Type="Derived"/>
      </ItemDef>
      <ItemDef OID="IT.PP.STUDYID" Name="STUDYID" DataType="text" SASFieldName="STUDYID" Length="200">
        <Description>
          <TranslatedText xml:lang="en">Study Identifier</TranslatedText>
        </Description>
        <def:Origin Type="Derived"/>
      </ItemDef>
      <ItemDef OID="IT.PP.DOMAIN" Name="DOMAIN" DataType="text" SASFieldName="DOMAIN" Length="200">
        <Description>
          <TranslatedText xml:lang="en">Domain Abbreviation</TranslatedText>
        </Description>
        <def:Origin Type="Derived"/>
      </ItemDef>
      <ItemDef OID="IT.PP.USUBJID" Name="USUBJID" DataType="text" SASFieldName="USUBJID" Length="200">
        <Description>
          <TranslatedText xml:lang="en">Unique Subject Identifier</TranslatedText>
        </Description>
        <def:Origin Type="Derived"/>
      </ItemDef>
      <ItemDef OID="IT.PP.PPSEQ" Name="PPSEQ" DataType="integer" SASFieldName="PPSEQ">
        <Description>
          <TranslatedText xml:lang="en">Sequence Number</TranslatedText>
        </Description>
        <def:Origin Type="Derived"/>
      </ItemDef>
      <ItemDef OID="IT.PP.PPTESTCD" Name="PPTESTCD" DataType="text" SASFieldName="PPTESTCD" Length="200">
        <Description>
          <TranslatedText xml:lang="en">PK Parameter Short Name</TranslatedText>
        </Description>
        <def:Origin Type="Collected"/>
      </ItemDef>
      <ItemDef OID="IT.PP.PPTEST" Name="PPTEST" DataType="text" SASFieldName="PPTEST" Length="200">
        <Description>
          <TranslatedText xml:lang="en">PK Parameter Name</TranslatedText>
        </Description>
        <def:Origin Type="Derived"/>
      </ItemDef>
      <ItemDef OID="IT.PP.PPORRES" Name="PPORRES" DataType="text" SASFieldName="PPORRES" Length="200">
        <Description>
          <TranslatedText xml:lang="en">Result or Finding in Original Units</TranslatedText>
        </Description>
        <def:Origin Type="Collected"/>
      </ItemDef>
      <ItemDef OID="IT.PP.PPORRESU" Name="PPORRESU" DataType="text" SASFieldName="PPORRESU" Length="200">
        <Description>
          <TranslatedText xml:lang="en">Original Units</TranslatedText>
        </Description>
        <def:Origin Type="Derived"/>
      </ItemDef>
      <ItemDef OID="IT.PP.PPSTRESC" Name="PPSTRESC" DataType="text" SASFieldName="PPSTRESC" Length="200">
        <Description>
          <TranslatedText xml:lang="en">Character Result/Finding in Std Format</TranslatedText>
        </Description>
        <def:Origin Type="Collected"/>
      </ItemDef>
      <ItemDef OID="IT.PP.PPSTRESN" Name="PPSTRESN" DataType="integer" SASFieldName="PPSTRESN">
        <Description>
          <TranslatedText xml:lang="en">Numeric Result/Finding in Standard Units</TranslatedText>
        </Description>
        <def:Origin Type="Collected"/>
      </ItemDef>
      <ItemDef OID="IT.PP.PPSTRESU" Name="PPSTRESU" DataType="text" SASFieldName="PPSTRESU" Length="200">
        <Description>
          <TranslatedText xml:lang="en">Standard Units</TranslatedText>
        </Description>
        <def:Origin Type="Derived"/>
      </ItemDef>
      <ItemDef OID="IT.PP.PPRFTDTC" Name="PPRFTDTC" DataType="text" SASFieldName="PPRFTDTC" Length="200">
        <Description>
          <TranslatedText xml:lang="en">Date/Time of Reference Point</TranslatedText>
        </Description>
        <def:Origin Type="Derived"/>
      </ItemDef>
      <ItemDef OID="IT.PP.VISITNUM" Name="VISITNUM" DataType="integer" SASFieldName="VISITNUM">
        <Description>
          <TranslatedText xml:lang="en">Visit Number</TranslatedText>
        </Description>
        <def:Origin Type="Derived"/>
      </ItemDef>
      <ItemDef OID="IT.PP.VISIT" Name="VISIT" DataType="text" SASFieldName="VISIT" Length="200">
        <Description>
          <TranslatedText xml:lang="en">Visit Name</TranslatedText>
        </Description>
        <def:Origin Type="Derived"/>
      </ItemDef>
      <ItemDef OID="IT.QS.STUDYID" Name="STUDYID" DataType="text" SASFieldName="STUDYID" Length="200">
        <Description>
          <TranslatedText xml:lang="en">Study Identifier</TranslatedText>
        </Description>
        <def:Origin Type="Derived"/>
      </ItemDef>
      <ItemDef OID="IT.QS.DOMAIN" Name="DOMAIN" DataType="text" SASFieldName="DOMAIN" Length="200">
        <Description>
          <TranslatedText xml:lang="en">Domain Abbreviation</TranslatedText>
        </Description>
        <def:Origin Type="Derived"/>
      </ItemDef>
      <ItemDef OID="IT.QS.USUBJID" Name="USUBJID" DataType="text" SASFieldName="USUBJID" Length="200">
        <Description>
          <TranslatedText xml:lang="en">Unique Subject Identifier</TranslatedText>
        </Description>
        <def:Origin Type="Derived"/>
      </ItemDef>
      <ItemDef OID="IT.QS.QSSEQ" Name="QSSEQ" DataType="integer" SASFieldName="QSSEQ">
        <Description>
          <TranslatedText xml:lang="en">Sequence Number</TranslatedText>
        </Description>
        <def:Origin Type="Derived"/>
      </ItemDef>
      <ItemDef OID="IT.QS.QSTESTCD" Name="QSTESTCD" DataType="text" SASFieldName="QSTESTCD" Length="200">
        <Description>
          <TranslatedText xml:lang="en">Questionnaire Item Short Name</TranslatedText>
        </Description>
        <def:Origin Type="Collected"/>
      </ItemDef>
      <ItemDef OID="IT.QS.QSTEST" Name="QSTEST" DataType="text" SASFieldName="QSTEST" Length="200">
        <Description>
          <TranslatedText xml:lang="en">Questionnaire Item Name</TranslatedText>
        </Description>
        <def:Origin Type="Derived"/>
      </ItemDef>
      <ItemDef OID="IT.QS.QSCAT" Name="QSCAT" DataType="text" SASFieldName="QSCAT" Length="200">
        <Description>
          <TranslatedText xml:lang="en">Category of Questionnaire</TranslatedText>
        </Description>
        <def:Origin Type="Collected"/>
      </ItemDef>
      <ItemDef OID="IT.QS.QSORRES" Name="QSORRES" DataType="text" SASFieldName="QSORRES" Length="200">
        <Description>
          <TranslatedText xml:lang="en">Result or Finding in Original Units</TranslatedText>
        </Description>
        <def:Origin Type="Collected"/>
      </ItemDef>
      <ItemDef OID="IT.QS.QSSTRESC" Name="QSSTRESC" DataType="text" SASFieldName="QSSTRESC" Length="200">
        <Description>
          <TranslatedText xml:lang="en">Character Result/Finding in Std Format</TranslatedText>
        </Description>
        <def:Origin Type="Collected"/>
      </ItemDef>
      <ItemDef OID="IT.QS.QSSTRESN" Name="QSSTRESN" DataType="integer" SASFieldName="QSSTRESN">
        <Description>
          <TranslatedText xml:lang="en">Numeric Result/Finding in Standard Units</TranslatedText>
        </Description>
        <def:Origin Type="Collected"/>
      </ItemDef>
      <ItemDef OID="IT.QS.QSDTC" Name="QSDTC" DataType="text" SASFieldName="QSDTC" Length="200">
        <Description>
          <TranslatedText xml:lang="en">Date/Time of Finding</TranslatedText>
        </Description>
        <def:Origin Type="Derived"/>
      </ItemDef>
      <ItemDef OID="IT.QS.VISITNUM" Name="VISITNUM" DataType="integer" SASFieldName="VISITNUM">
        <Description>
          <TranslatedText xml:lang="en">Visit Number</TranslatedText>
        </Description>
        <def:Origin Type="Derived"/>
      </ItemDef>
      <ItemDef OID="IT.QS.VISIT" Name="VISIT" DataType="text" SASFieldName="VISIT" Length="200">
        <Description>
          <TranslatedText xml:lang="en">Visit Name</TranslatedText>
        </Description>
        <def:Origin Type="Derived"/>
      </ItemDef>
      <ItemDef OID="IT.RELREC.STUDYID" Name="STUDYID" DataType="text" SASFieldName="STUDYID" Length="200">
        <Description>
          <TranslatedText xml:lang="en">Study Identifier</TranslatedText>
        </Description>
        <def:Origin Type="Derived"/>
      </ItemDef>
      <ItemDef OID="IT.RELREC.RDOMAIN" Name="RDOMAIN" DataType="text" SASFieldName="RDOMAIN" Length="200">
        <Description>
          <TranslatedText xml:lang="en">Related Domain Abbreviation</TranslatedText>
        </Description>
        <def:Origin Type="Derived"/>
      </ItemDef>
      <ItemDef OID="IT.RELREC.IDVAR" Name="IDVAR" DataType="text" SASFieldName="IDVAR" Length="200">
        <Description>
          <TranslatedText xml:lang="en">Identifying Variable</TranslatedText>
        </Description>
        <def:Origin Type="Derived"/>
      </ItemDef>
      <ItemDef OID="IT.RELREC.IDVARVAL" Name="IDVARVAL" DataType="text" SASFieldName="IDVARVAL" Length="200">
        <Description>
          <TranslatedText xml:lang="en">Identifying Variable Value</TranslatedText>
        </Description>
        <def:Origin Type="Derived"/>
      </ItemDef>
      <ItemDef OID="IT.RS.STUDYID" Name="STUDYID" DataType="text" SASFieldName="STUDYID" Length="200">
        <Description>
          <TranslatedText xml:lang="en">Study Identifier</TranslatedText>
        </Description>
        <def:Origin Type="Derived"/>
      </ItemDef>
      <ItemDef OID="IT.RS.DOMAIN" Name="DOMAIN" DataType="text" SASFieldName="DOMAIN" Length="200">
        <Description>
          <TranslatedText xml:lang="en">Domain Abbreviation</TranslatedText>
        </Description>
        <def:Origin Type="Derived"/>
      </ItemDef>
      <ItemDef OID="IT.RS.USUBJID" Name="USUBJID" DataType="text" SASFieldName="USUBJID" Length="200">
        <Description>
          <TranslatedText xml:lang="en">Unique Subject Identifier</TranslatedText>
        </Description>
        <def:Origin Type="Derived"/>
      </ItemDef>
      <ItemDef OID="IT.RS.RSSEQ" Name="RSSEQ" DataType="integer" SASFieldName="RSSEQ">
        <Description>
          <TranslatedText xml:lang="en">Sequence Number</TranslatedText>
        </Description>
        <def:Origin Type="Derived"/>
      </ItemDef>
      <ItemDef OID="IT.RS.RSTESTCD" Name="RSTESTCD" DataType="text" SASFieldName="RSTESTCD" Length="200">
        <Description>
          <TranslatedText xml:lang="en">Disease Response Short Name</TranslatedText>
        </Description>
        <def:Origin Type="Collected"/>
      </ItemDef>
      <ItemDef OID="IT.RS.RSTEST" Name="RSTEST" DataType="text" SASFieldName="RSTEST" Length="200">
        <Description>
          <TranslatedText xml:lang="en">Disease Response Test Name</TranslatedText>
        </Description>
        <def:Origin Type="Derived"/>
      </ItemDef>
      <ItemDef OID="IT.RS.RSCAT" Name="RSCAT" DataType="text" SASFieldName="RSCAT" Length="200">
        <Description>
          <TranslatedText xml:lang="en">Category for Disease Response</TranslatedText>
        </Description>
        <def:Origin Type="Collected"/>
      </ItemDef>
      <ItemDef OID="IT.RS.RSORRES" Name="RSORRES" DataType="text" SASFieldName="RSORRES" Length="200">
        <Description>
          <TranslatedText xml:lang="en">Result or Finding in Original Units</TranslatedText>
        </Description>
        <def:Origin Type="Collected"/>
      </ItemDef>
      <ItemDef OID="IT.RS.RSSTRESC" Name="RSSTRESC" DataType="text" SASFieldName="RSSTRESC" Length="200">
        <Description>
          <TranslatedText xml:lang="en">Character Result/Finding in Std Format</TranslatedText>
        </Description>
        <def:Origin Type="Collected"/>
      </ItemDef>
      <ItemDef OID="IT.RS.RSEVAL" Name="RSEVAL" DataType="text" SASFieldName="RSEVAL" Length="200">
        <Description>
          <TranslatedText xml:lang="en">Evaluator</TranslatedText>
        </Description>
        <CodeListRef CodeListOID="CL.EVAL"/>
        <def:Origin Type="Collected"/>
      </ItemDef>
      <ItemDef OID="IT.RS.RSDTC" Name="RSDTC" DataType="text" SASFieldName="RSDTC" Length="200">
        <Description>
          <TranslatedText xml:lang="en">Date/Time of Disease Response</TranslatedText>
        </Description>
        <def:Origin Type="Derived"/>
      </ItemDef>
      <ItemDef OID="IT.RS.VISITNUM" Name="VISITNUM" DataType="integer" SASFieldName="VISITNUM">
        <Description>
          <TranslatedText xml:lang="en">Visit Number</TranslatedText>
        </Description>
        <def:Origin Type="Derived"/>
      </ItemDef>
      <ItemDef OID="IT.RS.VISIT" Name="VISIT" DataType="text" SASFieldName="VISIT" Length="200">
        <Description>
          <TranslatedText xml:lang="en">Visit Name</TranslatedText>
        </Description>
        <def:Origin Type="Derived"/>
      </ItemDef>
      <ItemDef OID="IT.SC.STUDYID" Name="STUDYID" DataType="text" SASFieldName="STUDYID" Length="200">
        <Description>
          <TranslatedText xml:lang="en">Study Identifier</TranslatedText>
        </Description>
        <def:Origin Type="Derived"/>
      </ItemDef>
      <ItemDef OID="IT.SC.DOMAIN" Name="DOMAIN" DataType="text" SASFieldName="DOMAIN" Length="200">
        <Description>
          <TranslatedText xml:lang="en">Domain Abbreviation</TranslatedText>
        </Description>
        <def:Origin Type="Derived"/>
      </ItemDef>
      <ItemDef OID="IT.SC.USUBJID" Name="USUBJID" DataType="text" SASFieldName="USUBJID" Length="200">
        <Description>
          <TranslatedText xml:lang="en">Unique Subject Identifier</TranslatedText>
        </Description>
        <def:Origin Type="Derived"/>
      </ItemDef>
      <ItemDef OID="IT.SC.SCSEQ" Name="SCSEQ" DataType="integer" SASFieldName="SCSEQ">
        <Description>
          <TranslatedText xml:lang="en">Sequence Number</TranslatedText>
        </Description>
        <def:Origin Type="Derived"/>
      </ItemDef>
      <ItemDef OID="IT.SC.SCTESTCD" Name="SCTESTCD" DataType="text" SASFieldName="SCTESTCD" Length="200">
        <Description>
          <TranslatedText xml:lang="en">Subject Characteristic Short Name</TranslatedText>
        </Description>
        <def:Origin Type="Collected"/>
      </ItemDef>
      <ItemDef OID="IT.SC.SCTEST" Name="SCTEST" DataType="text" SASFieldName="SCTEST" Length="200">
        <Description>
          <TranslatedText xml:lang="en">Subject Characteristic</TranslatedText>
        </Description>
        <def:Origin Type="Derived"/>
      </ItemDef>
      <ItemDef OID="IT.SC.SCORRES" Name="SCORRES" DataType="text" SASFieldName="SCORRES" Length="200">
        <Description>
          <TranslatedText xml:lang="en">Result or Finding in Original Units</TranslatedText>
        </Description>
        <def:Origin Type="Collected"/>
      </ItemDef>
      <ItemDef OID="IT.SC.SCSTRESC" Name="SCSTRESC" DataType="text" SASFieldName="SCSTRESC" Length="200">
        <Description>
          <TranslatedText xml:lang="en">Character Result/Finding in Std Format</TranslatedText>
        </Description>
        <def:Origin Type="Collected"/>
      </ItemDef>
      <ItemDef OID="IT.SE.STUDYID" Name="STUDYID" DataType="text" SASFieldName="STUDYID" Length="200">
        <Description>
          <TranslatedText xml:lang="en">Study Identifier</TranslatedText>
        </Description>
        <def:Origin Type="Derived"/>
      </ItemDef>
      <ItemDef OID="IT.SE.DOMAIN" Name="DOMAIN" DataType="text" SASFieldName="DOMAIN" Length="200">
        <Description>
          <TranslatedText xml:lang="en">Domain Abbreviation</TranslatedText>
        </Description>
        <def:Origin Type="Derived"/>
      </ItemDef>
      <ItemDef OID="IT.SE.USUBJID" Name="USUBJID" DataType="text" SASFieldName="USUBJID" Length="200">
        <Description>
          <TranslatedText xml:lang="en">Unique Subject Identifier</TranslatedText>
        </Description>
        <def:Origin Type="Derived"/>
      </ItemDef>
      <ItemDef OID="IT.SE.SESEQ" Name="SESEQ" DataType="integer" SASFieldName="SESEQ">
        <Description>
          <TranslatedText xml:lang="en">Sequence Number</TranslatedText>
        </Description>
        <def:Origin Type="Derived"/>
      </ItemDef>
      <ItemDef OID="IT.SE.ETCD" Name="ETCD" DataType="text" SASFieldName="ETCD" Length="200">
        <Description>
          <TranslatedText xml:lang="en">Element Code</TranslatedText>
        </Description>
        <def:Origin Type="Collected"/>
      </ItemDef>
      <ItemDef OID="IT.SE.ELEMENT" Name="ELEMENT" DataType="text" SASFieldName="ELEMENT" Length="200">
        <Description>
          <TranslatedText xml:lang="en">Description of Element</TranslatedText>
        </Description>
        <def:Origin Type="Derived"/>
      </ItemDef>
      <ItemDef OID="IT.SE.EPOCH" Name="EPOCH" DataType="text" SASFieldName="EPOCH" Length="200">
        <Description>
          <TranslatedText xml:lang="en">Epoch</TranslatedText>
        </Description>
        <CodeListRef CodeListOID="CL.EPOCH"/>
        <def:Origin Type="Derived"/>
      </ItemDef>
      <ItemDef OID="IT.SE.SESTDTC" Name="SESTDTC" DataType="text" SASFieldName="SESTDTC" Length="200">
        <Description>
          <TranslatedText xml:lang="en">Start Date/Time of Element</TranslatedText>
        </Description>
        <def:Origin Type="Derived"/>
      </ItemDef>
      <ItemDef OID="IT.SE.SEENDTC" Name="SEENDTC" DataType="text" SASFieldName="SEENDTC" Length="200">
        <Description>
          <TranslatedText xml:lang="en">End Date/Time of Element</TranslatedText>
        </Description>
        <def:Origin Type="Derived"/>
      </ItemDef>
      <ItemDef OID="IT.TA.STUDYID" Name="STUDYID" DataType="text" SASFieldName="STUDYID" Length="200">
        <Description>
          <TranslatedText xml:lang="en">Study Identifier</TranslatedText>
        </Description>
        <def:Origin Type="Derived"/>
      </ItemDef>
      <ItemDef OID="IT.TA.DOMAIN" Name="DOMAIN" DataType="text" SASFieldName="DOMAIN" Length="200">
        <Description>
          <TranslatedText xml:lang="en">Domain Abbreviation</TranslatedText>
        </Description>
        <def:Origin Type="Derived"/>
      </ItemDef>
      <ItemDef OID="IT.TA.ARMCD" Name="ARMCD" DataType="text" SASFieldName="ARMCD" Length="200">
        <Description>
          <TranslatedText xml:lang="en">Planned Arm Code</TranslatedText>
        </Description>
        <def:Origin Type="Collected"/>
      </ItemDef>
      <ItemDef OID="IT.TA.ARM" Name="ARM" DataType="text" SASFieldName="ARM" Length="200">
        <Description>
          <TranslatedText xml:lang="en">Description of Planned Arm</TranslatedText>
        </Description>
        <def:Origin Type="Derived"/>
      </ItemDef>
      <ItemDef OID="IT.TA.TAETORD" Name="TAETORD" DataType="integer" SASFieldName="TAETORD">
        <Description>
          <TranslatedText xml:lang="en">Planned Order of Element within Arm</TranslatedText>
        </Description>
        <def:Origin Type="Derived"/>
      </ItemDef>
      <ItemDef OID="IT.TA.ETCD" Name="ETCD" DataType="text" SASFieldName="ETCD" Length="200">
        <Description>
          <TranslatedText xml:lang="en">Element Code</TranslatedText>
        </Description>
        <def:Origin Type="Derived"/>
      </ItemDef>
      <ItemDef OID="IT.TA.ELEMENT" Name="ELEMENT" DataType="text" SASFieldName="ELEMENT" Length="200">
        <Description>
          <TranslatedText xml:lang="en">Description of Element</TranslatedText>
        </Description>
        <def:Origin Type="Derived"/>
      </ItemDef>
      <ItemDef OID="IT.TA.EPOCH" Name="EPOCH" DataType="text" SASFieldName="EPOCH" Length="200">
        <Description>
          <TranslatedText xml:lang="en">Epoch</TranslatedText>
        </Description>
        <CodeListRef CodeListOID="CL.EPOCH"/>
        <def:Origin Type="Derived"/>
      </ItemDef>
      <ItemDef OID="IT.TE.STUDYID" Name="STUDYID" DataType="text" SASFieldName="STUDYID" Length="200">
        <Description>
          <TranslatedText xml:lang="en">Study Identifier</TranslatedText>
        </Description>
        <def:Origin Type="Derived"/>
      </ItemDef>
      <ItemDef OID="IT.TE.DOMAIN" Name="DOMAIN" DataType="text" SASFieldName="DOMAIN" Length="200">
        <Description>
          <TranslatedText xml:lang="en">Domain Abbreviation</TranslatedText>
        </Description>
        <def:Origin Type="Derived"/>
      </ItemDef>
      <ItemDef OID="IT.TE.ETCD" Name="ETCD" DataType="text" SASFieldName="ETCD" Length="200">
        <Description>
          <TranslatedText xml:lang="en">Element Code</TranslatedText>
        </Description>
        <def:Origin Type="Collected"/>
      </ItemDef>
      <ItemDef OID="IT.TE.ELEMENT" Name="ELEMENT" DataType="text" SASFieldName="ELEMENT" Length="200">
        <Description>
          <TranslatedText xml:lang="en">Description of Element</TranslatedText>
        </Description>
        <def:Origin Type="Derived"/>
      </ItemDef>
      <ItemDef OID="IT.TR.STUDYID" Name="STUDYID" DataType="text" SASFieldName="STUDYID" Length="200">
        <Description>
          <TranslatedText xml:lang="en">Study Identifier</TranslatedText>
        </Description>
        <def:Origin Type="Derived"/>
      </ItemDef>
      <ItemDef OID="IT.TR.DOMAIN" Name="DOMAIN" DataType="text" SASFieldName="DOMAIN" Length="200">
        <Description>
          <TranslatedText xml:lang="en">Domain Abbreviation</TranslatedText>
        </Description>
        <def:Origin Type="Derived"/>
      </ItemDef>
      <ItemDef OID="IT.TR.USUBJID" Name="USUBJID" DataType="text" SASFieldName="USUBJID" Length="200">
        <Description>
          <TranslatedText xml:lang="en">Unique Subject Identifier</TranslatedText>
        </Description>
        <def:Origin Type="Derived"/>
      </ItemDef>
      <ItemDef OID="IT.TR.TRSEQ" Name="TRSEQ" DataType="integer" SASFieldName="TRSEQ">
        <Description>
          <TranslatedText xml:lang="en">Sequence Number</TranslatedText>
        </Description>
        <def:Origin Type="Derived"/>
      </ItemDef>
      <ItemDef OID="IT.TR.TRLNKID" Name="TRLNKID" DataType="text" SASFieldName="TRLNKID" Length="200">
        <Description>
          <TranslatedText xml:lang="en">Link ID</TranslatedText>
        </Description>
        <def:Origin Type="Derived"/>
      </ItemDef>
      <ItemDef OID="IT.TR.TRTESTCD" Name="TRTESTCD" DataType="text" SASFieldName="TRTESTCD" Length="200">
        <Description>
          <TranslatedText xml:lang="en">Tumor/Lesion Assessment Short Name</TranslatedText>
        </Description>
        <def:Origin Type="Collected"/>
      </ItemDef>
      <ItemDef OID="IT.TR.TRTEST" Name="TRTEST" DataType="text" SASFieldName="TRTEST" Length="200">
        <Description>
          <TranslatedText xml:lang="en">Tumor/Lesion Assessment Test Name</TranslatedText>
        </Description>
        <def:Origin Type="Derived"/>
      </ItemDef>
      <ItemDef OID="IT.TR.TRORRES" Name="TRORRES" DataType="text" SASFieldName="TRORRES" Length="200">
        <Description>
          <TranslatedText xml:lang="en">Result or Finding in Original Units</TranslatedText>
        </Description>
        <def:Origin Type="Collected"/>
      </ItemDef>
      <ItemDef OID="IT.TR.TRORRESU" Name="TRORRESU" DataType="text" SASFieldName="TRORRESU" Length="200">
        <Description>
          <TranslatedText xml:lang="en">Original Units</TranslatedText>
        </Description>
        <def:Origin Type="Derived"/>
      </ItemDef>
      <ItemDef OID="IT.TR.TRSTRESC" Name="TRSTRESC" DataType="text" SASFieldName="TRSTRESC" Length="200">
        <Description>
          <TranslatedText xml:lang="en">Character Result/Finding in Std Format</TranslatedText>
        </Description>
        <def:Origin Type="Collected"/>
      </ItemDef>
      <ItemDef OID="IT.TR.TRSTRESN" Name="TRSTRESN" DataType="integer" SASFieldName="TRSTRESN">
        <Description>
          <TranslatedText xml:lang="en">Numeric Result/Finding in Standard Units</TranslatedText>
        </Description>
        <def:Origin Type="Collected"/>
      </ItemDef>
      <ItemDef OID="IT.TR.TRSTRESU" Name="TRSTRESU" DataType="text" SASFieldName="TRSTRESU" Length="200">
        <Description>
          <TranslatedText xml:lang="en">Standard Units</TranslatedText>
        </Description>
        <def:Origin Type="Derived"/>
      </ItemDef>
      <ItemDef OID="IT.TR.TRMETHOD" Name="TRMETHOD" DataType="text" SASFieldName="TRMETHOD" Length="200">
        <Description>
          <TranslatedText xml:lang="en">Method of Test</TranslatedText>
        </Description>
        <def:Origin Type="Collected"/>
      </ItemDef>
      <ItemDef OID="IT.TR.TREVAL" Name="TREVAL" DataType="text" SASFieldName="TREVAL" Length="200">
        <Description>
          <TranslatedText xml:lang="en">Evaluator</TranslatedText>
        </Description>
        <CodeListRef CodeListOID="CL.EVAL"/>
        <def:Origin Type="Collected"/>
      </ItemDef>
      <ItemDef OID="IT.TR.TRDTC" Name="TRDTC" DataType="text" SASFieldName="TRDTC" Length="200">
        <Description>
          <TranslatedText xml:lang="en">Date/Time of Assessment</TranslatedText>
        </Description>
        <def:Origin Type="Derived"/>
      </ItemDef>
      <ItemDef OID="IT.TR.VISITNUM" Name="VISITNUM" DataType="integer" SASFieldName="VISITNUM">
        <Description>
          <TranslatedText xml:lang="en">Visit Number</TranslatedText>
        </Description>
        <def:Origin Type="Derived"/>
      </ItemDef>
      <ItemDef OID="IT.TR.VISIT" Name="VISIT" DataType="text" SASFieldName="VISIT" Length="200">
        <Description>
          <TranslatedText xml:lang="en">Visit Name</TranslatedText>
        </Description>
        <def:Origin Type="Derived"/>
      </ItemDef>
      <ItemDef OID="IT.TS.STUDYID" Name="STUDYID" DataType="text" SASFieldName="STUDYID" Length="200">
        <Description>
          <TranslatedText xml:lang="en">Study Identifier</TranslatedText>
        </Description>
        <def:Origin Type="Derived"/>
      </ItemDef>
      <ItemDef OID="IT.TS.DOMAIN" Name="DOMAIN" DataType="text" SASFieldName="DOMAIN" Length="200">
        <Description>
          <TranslatedText xml:lang="en">Domain Abbreviation</TranslatedText>
        </Description>
        <def:Origin Type="Derived"/>
      </ItemDef>
      <ItemDef OID="IT.TS.TSSEQ" Name="TSSEQ" DataType="integer" SASFieldName="TSSEQ">
        <Description>
          <TranslatedText xml:lang="en">Sequence Number</TranslatedText>
        </Description>
        <def:Origin Type="Derived"/>
      </ItemDef>
      <ItemDef OID="IT.TS.TSPARMCD" Name="TSPARMCD" DataType="text" SASFieldName="TSPARMCD" Length="200">
        <Description>
          <TranslatedText xml:lang="en">Trial Summary Parameter Short Name</TranslatedText>
        </Description>
        <def:Origin Type="Collected"/>
      </ItemDef>
      <ItemDef OID="IT.TS.TSPARM" Name="TSPARM" DataType="text" SASFieldName="TSPARM" Length="200">
        <Description>
          <TranslatedText xml:lang="en">Trial Summary Parameter</TranslatedText>
        </Description>
        <def:Origin Type="Derived"/>
      </ItemDef>
      <ItemDef OID="IT.TS.TSVAL" Name="TSVAL" DataType="text" SASFieldName="TSVAL" Length="200">
        <Description>
          <TranslatedText xml:lang="en">Parameter Value</TranslatedText>
        </Description>
        <def:Origin Type="Collected"/>
      </ItemDef>
      <ItemDef OID="IT.TU.STUDYID" Name="STUDYID" DataType="text" SASFieldName="STUDYID" Length="200">
        <Description>
          <TranslatedText xml:lang="en">Study Identifier</TranslatedText>
        </Description>
        <def:Origin Type="Derived"/>
      </ItemDef>
      <ItemDef OID="IT.TU.DOMAIN" Name="DOMAIN" DataType="text" SASFieldName="DOMAIN" Length="200">
        <Description>
          <TranslatedText xml:lang="en">Domain Abbreviation</TranslatedText>
        </Description>
        <def:Origin Type="Derived"/>
      </ItemDef>
      <ItemDef OID="IT.TU.USUBJID" Name="USUBJID" DataType="text" SASFieldName="USUBJID" Length="200">
        <Description>
          <TranslatedText xml:lang="en">Unique Subject Identifier</TranslatedText>
        </Description>
        <def:Origin Type="Derived"/>
      </ItemDef>
      <ItemDef OID="IT.TU.TUSEQ" Name="TUSEQ" DataType="integer" SASFieldName="TUSEQ">
        <Description>
          <TranslatedText xml:lang="en">Sequence Number</TranslatedText>
        </Description>
        <def:Origin Type="Derived"/>
      </ItemDef>
      <ItemDef OID="IT.TU.TULNKID" Name="TULNKID" DataType="text" SASFieldName="TULNKID" Length="200">
        <Description>
          <TranslatedText xml:lang="en">Link ID</TranslatedText>
        </Description>
        <def:Origin Type="Derived"/>
      </ItemDef>
      <ItemDef OID="IT.TU.TUTESTCD" Name="TUTESTCD" DataType="text" SASFieldName="TUTESTCD" Length="200">
        <Description>
          <TranslatedText xml:lang="en">Tumor/Lesion ID Short Name</TranslatedText>
        </Description>
        <def:Origin Type="Collected"/>
      </ItemDef>
      <ItemDef OID="IT.TU.TUTEST" Name="TUTEST" DataType="text" SASFieldName="TUTEST" Length="200">
        <Description>
          <TranslatedText xml:lang="en">Tumor/Lesion ID Test Name</TranslatedText>
        </Description>
        <def:Origin Type="Derived"/>
      </ItemDef>
      <ItemDef OID="IT.TU.TUORRES" Name="TUORRES" DataType="text" SASFieldName="TUORRES" Length="200">
        <Description>
          <TranslatedText xml:lang="en">Result or Finding in Original Units</TranslatedText>
        </Description>
        <def:Origin Type="Collected"/>
      </ItemDef>
      <ItemDef OID="IT.TU.TUSTRESC" Name="TUSTRESC" DataType="text" SASFieldName="TUSTRESC" Length="200">
        <Description>
          <TranslatedText xml:lang="en">Character Result/Finding in Std Format</TranslatedText>
        </Description>
        <def:Origin Type="Collected"/>
      </ItemDef>
      <ItemDef OID="IT.TU.TULOC" Name="TULOC" DataType="text" SASFieldName="TULOC" Length="200">
        <Description>
          <TranslatedText xml:lang="en">Location of Tumor/Lesion</TranslatedText>
        </Description>
        <def:Origin Type="Collected"/>
      </ItemDef>
      <ItemDef OID="IT.TU.TUMETHOD" Name="TUMETHOD" DataType="text" SASFieldName="TUMETHOD" Length="200">
        <Description>
          <TranslatedText xml:lang="en">Method of Identification</TranslatedText>
        </Description>
        <def:Origin Type="Collected"/>
      </ItemDef>
      <ItemDef OID="IT.TU.TUEVAL" Name="TUEVAL" DataType="text" SASFieldName="TUEVAL" Length="200">
        <Description>
          <TranslatedText xml:lang="en">Evaluator</TranslatedText>
        </Description>
        <CodeListRef CodeListOID="CL.EVAL"/>
        <def:Origin Type="Collected"/>
      </ItemDef>
      <ItemDef OID="IT.TU.TUDTC" Name="TUDTC" DataType="text" SASFieldName="TUDTC" Length="200">
        <Description>
          <TranslatedText xml:lang="en">Date/Time of Identification</TranslatedText>
        </Description>
        <def:Origin Type="Derived"/>
      </ItemDef>
      <ItemDef OID="IT.TU.VISITNUM" Name="VISITNUM" DataType="integer" SASFieldName="VISITNUM">
        <Description>
          <TranslatedText xml:lang="en">Visit Number</TranslatedText>
        </Description>
        <def:Origin Type="Derived"/>
      </ItemDef>
      <ItemDef OID="IT.TU.VISIT" Name="VISIT" DataType="text" SASFieldName="VISIT" Length="200">
        <Description>
          <TranslatedText xml:lang="en">Visit Name</TranslatedText>
        </Description>
        <def:Origin Type="Derived"/>
      </ItemDef>
      <ItemDef OID="IT.TU.TUDY" Name="TUDY" DataType="integer" SASFieldName="TUDY">
        <Description>
          <TranslatedText xml:lang="en">Study Day of Identification</TranslatedText>
        </Description>
        <def:Origin Type="Derived"/>
      </ItemDef>
      <ItemDef OID="IT.TV.STUDYID" Name="STUDYID" DataType="text" SASFieldName="STUDYID" Length="200">
        <Description>
          <TranslatedText xml:lang="en">Study Identifier</TranslatedText>
        </Description>
        <def:Origin Type="Derived"/>
      </ItemDef>
      <ItemDef OID="IT.TV.DOMAIN" Name="DOMAIN" DataType="text" SASFieldName="DOMAIN" Length="200">
        <Description>
          <TranslatedText xml:lang="en">Domain Abbreviation</TranslatedText>
        </Description>
        <def:Origin Type="Derived"/>
      </ItemDef>
      <ItemDef OID="IT.TV.VISITNUM" Name="VISITNUM" DataType="integer" SASFieldName="VISITNUM">
        <Description>
          <TranslatedText xml:lang="en">Visit Number</TranslatedText>
        </Description>
        <def:Origin Type="Collected"/>
      </ItemDef>
      <ItemDef OID="IT.TV.VISIT" Name="VISIT" DataType="text" SASFieldName="VISIT" Length="200">
        <Description>
          <TranslatedText xml:lang="en">Visit Name</TranslatedText>
        </Description>
        <def:Origin Type="Derived"/>
      </ItemDef>
      <ItemDef OID="IT.TV.ARMCD" Name="ARMCD" DataType="text" SASFieldName="ARMCD" Length="200">
        <Description>
          <TranslatedText xml:lang="en">Planned Arm Code</TranslatedText>
        </Description>
        <def:Origin Type="Collected"/>
      </ItemDef>
      <ItemDef OID="IT.TV.ARM" Name="ARM" DataType="text" SASFieldName="ARM" Length="200">
        <Description>
          <TranslatedText xml:lang="en">Description of Planned Arm</TranslatedText>
        </Description>
        <def:Origin Type="Derived"/>
      </ItemDef>
      <CodeList OID="CL.NY" Name="No Yes Response" DataType="text">
        <CodeListItem CodedValue="N">
          <Decode>
            <TranslatedText xml:lang="en">No</TranslatedText>
          </Decode>
        </CodeListItem>
        <CodeListItem CodedValue="Y">
          <Decode>
            <TranslatedText xml:lang="en">Yes</TranslatedText>
          </Decode>
        </CodeListItem>
      </CodeList>
      <CodeList OID="CL.SEX" Name="Sex" DataType="text">
        <CodeListItem CodedValue="F">
          <Decode>
            <TranslatedText xml:lang="en">Female</TranslatedText>
          </Decode>
        </CodeListItem>
        <CodeListItem CodedValue="M">
          <Decode>
            <TranslatedText xml:lang="en">Male</TranslatedText>
          </Decode>
        </CodeListItem>
        <CodeListItem CodedValue="U">
          <Decode>
            <TranslatedText xml:lang="en">Unknown</TranslatedText>
          </Decode>
        </CodeListItem>
      </CodeList>
      <CodeList OID="CL.RACE" Name="Race" DataType="text">
        <CodeListItem CodedValue="AMERICAN INDIAN OR ALASKA NATIVE">
          <Decode>
            <TranslatedText xml:lang="en">American Indian or Alaska Native</TranslatedText>
          </Decode>
        </CodeListItem>
        <CodeListItem CodedValue="ASIAN">
          <Decode>
            <TranslatedText xml:lang="en">Asian</TranslatedText>
          </Decode>
        </CodeListItem>
        <CodeListItem CodedValue="BLACK OR AFRICAN AMERICAN">
          <Decode>
            <TranslatedText xml:lang="en">Black or African American</TranslatedText>
          </Decode>
        </CodeListItem>
        <CodeListItem CodedValue="NATIVE HAWAIIAN OR OTHER PACIFIC ISLANDER">
          <Decode>
            <TranslatedText xml:lang="en">Native Hawaiian or Other Pacific Islander</TranslatedText>
          </Decode>
        </CodeListItem>
        <CodeListItem CodedValue="WHITE">
          <Decode>
            <TranslatedText xml:lang="en">White</TranslatedText>
          </Decode>
        </CodeListItem>
        <CodeListItem CodedValue="MULTIPLE">
          <Decode>
            <TranslatedText xml:lang="en">Multiple</TranslatedText>
          </Decode>
        </CodeListItem>
        <CodeListItem CodedValue="OTHER">
          <Decode>
            <TranslatedText xml:lang="en">Other</TranslatedText>
          </Decode>
        </CodeListItem>
      </CodeList>
      <CodeList OID="CL.ETHNIC" Name="Ethnicity" DataType="text">
        <CodeListItem CodedValue="HISPANIC OR LATINO">
          <Decode>
            <TranslatedText xml:lang="en">Hispanic or Latino</TranslatedText>
          </Decode>
        </CodeListItem>
        <CodeListItem CodedValue="NOT HISPANIC OR LATINO">
          <Decode>
            <TranslatedText xml:lang="en">Not Hispanic or Latino</TranslatedText>
          </Decode>
        </CodeListItem>
        <CodeListItem CodedValue="NOT REPORTED">
          <Decode>
            <TranslatedText xml:lang="en">Not Reported</TranslatedText>
          </Decode>
        </CodeListItem>
        <CodeListItem CodedValue="UNKNOWN">
          <Decode>
            <TranslatedText xml:lang="en">Unknown</TranslatedText>
          </Decode>
        </CodeListItem>
      </CodeList>
      <CodeList OID="CL.ACN" Name="Action Taken with Study Treatment" DataType="text">
        <CodeListItem CodedValue="DOSE INCREASED">
          <Decode>
            <TranslatedText xml:lang="en">Dose Increased</TranslatedText>
          </Decode>
        </CodeListItem>
        <CodeListItem CodedValue="DOSE NOT CHANGED">
          <Decode>
            <TranslatedText xml:lang="en">Dose Not Changed</TranslatedText>
          </Decode>
        </CodeListItem>
        <CodeListItem CodedValue="DOSE REDUCED">
          <Decode>
            <TranslatedText xml:lang="en">Dose Reduced</TranslatedText>
          </Decode>
        </CodeListItem>
        <CodeListItem CodedValue="DRUG INTERRUPTED">
          <Decode>
            <TranslatedText xml:lang="en">Drug Interrupted</TranslatedText>
          </Decode>
        </CodeListItem>
        <CodeListItem CodedValue="DRUG WITHDRAWN">
          <Decode>
            <TranslatedText xml:lang="en">Drug Withdrawn</TranslatedText>
          </Decode>
        </CodeListItem>
        <CodeListItem CodedValue="NOT APPLICABLE">
          <Decode>
            <TranslatedText xml:lang="en">Not Applicable</TranslatedText>
          </Decode>
        </CodeListItem>
        <CodeListItem CodedValue="UNKNOWN">
          <Decode>
            <TranslatedText xml:lang="en">Unknown</TranslatedText>
          </Decode>
        </CodeListItem>
      </CodeList>
      <CodeList OID="CL.OUT" Name="Outcome of Event" DataType="text">
        <CodeListItem CodedValue="FATAL">
          <Decode>
            <TranslatedText xml:lang="en">Fatal</TranslatedText>
          </Decode>
        </CodeListItem>
        <CodeListItem CodedValue="NOT RECOVERED/NOT RESOLVED">
          <Decode>
            <TranslatedText xml:lang="en">Not Recovered/Not Resolved</TranslatedText>
          </Decode>
        </CodeListItem>
        <CodeListItem CodedValue="RECOVERED/RESOLVED">
          <Decode>
            <TranslatedText xml:lang="en">Recovered/Resolved</TranslatedText>
          </Decode>
        </CodeListItem>
        <CodeListItem CodedValue="RECOVERED/RESOLVED WITH SEQUELAE">
          <Decode>
            <TranslatedText xml:lang="en">Recovered/Resolved With Sequelae</TranslatedText>
          </Decode>
        </CodeListItem>
        <CodeListItem CodedValue="RECOVERING/RESOLVING">
          <Decode>
            <TranslatedText xml:lang="en">Recovering/Resolving</TranslatedText>
          </Decode>
        </CodeListItem>
        <CodeListItem CodedValue="UNKNOWN">
          <Decode>
            <TranslatedText xml:lang="en">Unknown</TranslatedText>
          </Decode>
        </CodeListItem>
      </CodeList>
      <CodeList OID="CL.STAT" Name="Completion Status" DataType="text">
        <CodeListItem CodedValue="NOT DONE">
          <Decode>
            <TranslatedText xml:lang="en">Not Done</TranslatedText>
          </Decode>
        </CodeListItem>
      </CodeList>
      <CodeList OID="CL.EVAL" Name="Evaluator" DataType="text">
        <CodeListItem CodedValue="ADJUDICATION COMMITTEE">
          <Decode>
            <TranslatedText xml:lang="en">Adjudication Committee</TranslatedText>
          </Decode>
        </CodeListItem>
        <CodeListItem CodedValue="INDEPENDENT ASSESSOR">
          <Decode>
            <TranslatedText xml:lang="en">Independent Assessor</TranslatedText>
          </Decode>
        </CodeListItem>
        <CodeListItem CodedValue="INVESTIGATOR">
          <Decode>
            <TranslatedText xml:lang="en">Investigator</TranslatedText>
          </Decode>
        </CodeListItem>
        <CodeListItem CodedValue="SPONSOR">
          <Decode>
            <TranslatedText xml:lang="en">Sponsor</TranslatedText>
          </Decode>
        </CodeListItem>
      </CodeList>
      <CodeList OID="CL.EPOCH" Name="Epoch" DataType="text">
        <CodeListItem CodedValue="SCREENING">
          <Decode>
            <TranslatedText xml:lang="en">Screening</TranslatedText>
          </Decode>
        </CodeListItem>
        <CodeListItem CodedValue="RUN-IN">
          <Decode>
            <TranslatedText xml:lang="en">Run-in</TranslatedText>
          </Decode>
        </CodeListItem>
        <CodeListItem CodedValue="TREATMENT">
          <Decode>
            <TranslatedText xml:lang="en">Treatment</TranslatedText>
          </Decode>
        </CodeListItem>
        <CodeListItem CodedValue="FOLLOW-UP">
          <Decode>
            <TranslatedText xml:lang="en">Follow-up</TranslatedText>
          </Decode>
        </CodeListItem>
      </CodeList>
      <MethodDef OID="MT.AE.DY" Name="Algorithm for AEDY" Type="Computation">
        <Description>
          <TranslatedText xml:lang="en">AEDY = AESTDTC - RFSTDTC + 1 (if AESTDTC &gt;= RFSTDTC)</TranslatedText>
        </Description>
      </MethodDef>
      <MethodDef OID="MT.DS.DY" Name="Algorithm for DSDY" Type="Computation">
        <Description>
          <TranslatedText xml:lang="en">DSDY = DSSTDTC - RFSTDTC + 1 (if DSSTDTC &gt;= RFSTDTC)</TranslatedText>
        </Description>
      </MethodDef>
      <MethodDef OID="MT.EX.DY" Name="Algorithm for EXDY" Type="Computation">
        <Description>
          <TranslatedText xml:lang="en">EXDY = EXSTDTC - RFSTDTC + 1 (if EXSTDTC &gt;= RFSTDTC)</TranslatedText>
        </Description>
      </MethodDef>
    </MetaDataVersion>
  </Study>
</ODM>
